ax,ay,az,rx,ry,rz,label
0.020996,-0.021729,1.001465,-0.109863,0.017090,0.031128,0

0.022461,-0.022339,1.000488,-0.048828,-0.104980,0.031128,0

0.018066,-0.023804,0.997192,-0.109863,-0.104980,0.031128,0

0.019165,-0.025635,1.001465,-0.048828,0.200195,0.031128,0

0.024536,-0.021729,1.002808,0.012207,0.017090,0.031128,0

0.023560,-0.023315,1.000488,-0.048828,0.017090,-0.029907,0

0.023438,-0.023560,1.002686,-0.048828,0.017090,0.092163,0

0.017822,-0.025635,0.998779,0.073242,-0.227051,-0.029907,0

0.016968,-0.023560,1.002930,-0.048828,0.017090,0.031128,0

0.022583,-0.022827,1.003296,-0.048828,0.078125,0.031128,0

0.021973,-0.023926,0.999878,0.073242,0.017090,0.092163,0

0.017578,-0.025513,1.003784,-0.048828,-0.043945,-0.029907,0

0.022461,-0.025024,1.002441,0.012207,0.017090,0.031128,0

0.024536,-0.023682,1.002563,-0.048828,0.017090,-0.029907,0

0.020996,-0.022949,1.002930,-0.048828,0.017090,-0.090942,0

0.024414,-0.022461,1.004150,-0.109863,0.017090,0.092163,0

0.019409,-0.022705,1.004395,-0.048828,0.017090,0.031128,0

0.022583,-0.025024,1.001465,-0.109863,0.017090,0.031128,0

0.024658,-0.023438,1.003052,-0.109863,-0.043945,-0.029907,0

0.024780,-0.020020,1.005127,-0.231934,0.078125,0.031128,0

0.020264,-0.023438,0.999268,-0.476074,0.017090,-0.029907,0

0.021362,-0.027832,1.001343,-0.415039,0.078125,0.031128,0

0.021606,-0.027466,1.001343,-0.109863,0.017090,0.031128,0

0.022583,-0.022705,1.002686,-0.109863,0.017090,0.092163,0

0.022705,-0.027466,1.000610,0.012207,0.017090,0.031128,0

0.023315,-0.024170,1.002563,0.073242,0.017090,0.031128,0

0.018799,-0.024902,1.004395,-0.048828,0.017090,0.092163,0

0.020630,-0.024536,0.999878,0.012207,-0.043945,-0.029907,0

0.020996,-0.026123,1.003296,0.012207,0.017090,0.031128,0

0.024658,-0.025146,1.003906,-0.048828,-0.043945,0.031128,0

0.020020,-0.022461,1.001709,-0.048828,-0.043945,0.031128,0

0.020264,-0.026123,1.002441,0.012207,0.078125,-0.029907,0

0.020996,-0.026489,0.998657,0.012207,0.017090,0.031128,0

0.021973,-0.025879,1.003662,0.012207,0.017090,-0.029907,0

0.023804,-0.023926,1.005005,-0.048828,0.078125,-0.029907,0

0.020874,-0.026611,1.001099,-0.048828,0.078125,-0.029907,0

0.021606,-0.025024,1.002563,0.012207,0.017090,-0.029907,0

0.023560,-0.024048,1.004883,-0.048828,-0.043945,0.092163,0

0.021606,-0.023438,0.992554,2.209473,0.078125,0.031128,0

-0.134033,-0.924438,1.009155,-2.001953,0.139160,14.618530,0

0.640991,2.598633,1.030029,-5.969238,-1.142578,134.491577,0

0.145020,-0.026001,1.017090,-6.518555,2.946777,-1.494751,0

0.052368,-0.206909,0.968018,-20.312500,9.477539,26.825562,0

-0.060791,-0.112305,1.160034,-100.451660,-4.865723,126.068726,0

-0.097412,-0.386963,1.021118,-256.640625,-16.340332,112.946167,0

0.043823,-0.350708,0.754150,-183.947754,-3.217773,74.860229,0

-0.165039,-0.622070,0.883789,-152.758789,-31.232910,39.398804,0

0.004761,-0.765015,0.742920,-183.764648,-35.078125,66.071167,0

-0.171753,-0.866211,0.543091,-102.832031,10.637207,42.206421,0

-0.376587,-1.085815,0.583252,-28.674316,14.970703,-15.410767,0

-0.161255,-0.877686,0.444946,-98.620605,-16.218262,30.609741,0

-0.287720,-0.886108,0.432739,96.203613,-10.480957,4.181519,0

-0.147095,-0.701294,0.344604,80.883789,-10.847168,-2.410278,0

-0.090088,-0.913696,0.499634,89.001465,14.360352,6.195679,0

-0.086548,-0.649658,0.533936,66.784668,2.824707,-7.964478,0

-0.024902,-0.643188,0.717285,192.211914,24.980469,10.529175,0

-0.103394,-0.339844,0.692017,221.691895,3.923340,-6.865845,0

-0.112305,-0.508789,1.232300,96.813965,-143.842773,-5.095825,0

-0.070068,-0.077637,1.147827,190.441895,-96.845703,-84.807739,0

0.327393,0.027100,1.204102,57.690430,-30.134277,-72.295532,0

0.138184,0.142944,0.974243,109.204102,-32.514648,-200.591431,0

-0.138916,0.044800,1.111938,103.710938,-10.664062,-99.212036,0

0.098145,0.296143,0.622803,-17.199707,48.356934,-155.303345,0

0.050171,0.281128,1.018311,-58.032227,22.111816,-134.429321,0

-0.014160,0.229370,0.894165,-306.323242,-2.668457,-121.306763,0

0.168213,-0.327026,0.869751,-281.787109,-29.890137,-101.043091,0

0.256470,-0.518799,0.790283,-284.106445,-12.495117,-127.715454,0

0.024414,-0.679688,0.505737,-236.315918,-26.838379,-67.351685,0

0.210449,-0.889282,0.513428,-226.672363,12.651367,-40.435181,0

-0.068115,-0.962036,0.141846,-177.844238,28.398438,-40.191040,0

0.224365,-0.987793,0.044922,-41.918945,22.600098,-48.186646,0

0.182251,-1.169312,0.265503,203.747559,63.737793,25.055542,0

0.323120,-1.034790,0.707275,178.479004,60.625000,66.498413,0

0.144287,-0.721924,0.774780,385.693359,151.811523,60.272827,0

-0.228394,-0.102051,0.921631,299.816895,179.948730,14.923706,0

-0.163452,-0.012207,1.039429,247.143555,84.245605,63.019409,0

-0.215820,0.188721,0.906006,276.745605,134.660645,-2.471313,0

-0.428711,0.416870,0.656006,173.046875,221.879883,-35.918579,0

-0.643433,0.550781,0.536255,146.435547,155.717773,27.680054,0

-0.688599,0.652222,0.276489,180.249023,120.561523,35.919800,0

-0.656982,0.692627,0.152832,94.006348,72.038574,51.239624,0

-0.708374,0.776245,-0.176880,52.807617,31.999512,129.242554,0

-0.582397,0.496460,-0.131348,140.820312,18.510742,172.943726,0

-0.348999,0.814575,-0.310791,45.239258,71.550293,256.683960,0

0.002808,0.124146,-0.060303,53.173828,155.412598,159.210815,0

-0.059692,0.905762,-0.266113,-38.317871,36.333008,105.682983,0

0.430786,0.598877,-0.168335,-71.093750,151.262207,79.559937,0

0.045898,0.939575,-0.186646,43.408203,128.557129,-50.689087,0

0.212524,0.964722,-0.204468,24.609375,134.416504,-109.893188,0

-0.287354,0.572510,-0.074585,64.526367,-28.242188,-274.810181,0

-0.473999,1.403564,-0.591187,35.961914,-101.972656,-143.584595,0

-0.527222,0.337769,-0.403442,-64.318848,-77.680664,-271.087036,0

-1.044922,1.471924,0.078613,16.918945,-26.166992,-191.130981,0

-0.671143,0.379761,-0.589600,-0.048828,-83.662109,-103.301392,0

-1.100830,0.670654,0.332031,33.337402,-22.687988,-227.507935,0

-0.968994,0.650269,0.174561,-34.716797,-117.475586,-114.043579,0

-1.119507,0.339600,0.075684,-14.086914,-196.455078,-116.790161,0

-0.978027,0.262085,0.244629,-41.918945,-159.284668,-60.454712,0

-0.876465,0.215576,0.324707,-23.913574,-189.741211,-24.993286,0

-0.701050,0.059937,0.387329,25.769043,-196.882324,-0.396118,0

-0.634033,0.029053,0.550049,14.599609,-216.352539,54.291382,0

-0.297241,-0.458618,0.190063,-34.838867,-118.757324,-22.918091,0

-0.149536,-0.084473,0.950684,-36.914062,-131.757812,15.411987,0

0.020752,-0.325073,0.762695,42.126465,-89.155273,28.656616,0

-0.055176,0.153564,1.145752,79.724121,-48.688965,-9.856567,0

-0.067993,0.005615,0.900024,136.608887,3.801270,-84.563599,0

0.036743,0.287842,1.357788,74.230957,-33.613281,-21.148071,0

0.015747,0.413330,1.200684,142.041016,52.568359,-80.901489,0

-0.202515,0.705566,0.806885,212.353516,44.206543,-134.185181,0

-0.237061,0.630615,0.775024,150.769043,39.079590,-144.622192,0

-0.388184,1.025513,0.669189,196.484375,16.862793,-205.718384,0

-0.428101,0.648926,0.355713,174.389648,13.505859,-239.470825,0

-0.479370,0.573242,0.267212,32.116699,-60.590820,-149.321899,0

-0.448608,0.377930,0.085205,28.271484,-73.652344,-153.472290,0

-0.484741,0.267212,0.218994,-21.228027,-96.906738,-122.588501,0

-0.409180,0.202637,0.425415,84.912109,-173.322754,-128.875122,0

-0.373535,0.135986,0.614380,106.945801,-139.020996,-84.563599,0

-0.013916,0.296021,0.627075,73.010254,-180.830078,-68.572388,0

0.000000,0.171387,0.854614,18.994141,-188.093262,-21.636353,0

0.217163,0.211304,1.067749,31.384277,-177.839355,5.890503,0

0.672852,0.249634,1.534058,-26.477051,-161.481934,81.207886,0

0.889404,-0.211060,1.596436,88.879395,47.136230,113.678589,0

0.675659,0.211914,1.159668,28.393555,108.842773,254.120483,0

0.655396,0.284180,1.215210,81.494141,195.756836,249.298706,0

0.379517,0.677368,0.467041,130.261230,263.627930,245.575562,0

0.220459,0.690430,0.422607,96.875000,208.208008,225.800171,0

0.256348,0.873535,0.226562,143.017578,192.338867,217.804565,0

0.194214,1.083740,0.181519,120.434570,156.633301,143.646851,0

0.250732,0.962158,-0.014404,154.553223,139.787598,126.129761,0

0.262939,1.158936,-0.131836,200.939941,102.189941,103.119507,0

0.219849,1.085449,-0.358032,249.523926,94.865723,56.793823,0

0.213623,1.245117,-0.871216,230.603027,35.173340,-1.677856,0

0.277222,1.100342,-0.663696,171.948242,-31.171875,-107.024536,0

0.011230,0.894897,-0.984375,-6.518555,-140.180664,-246.917114,0

0.019409,0.732422,-0.708130,140.332031,-311.994629,-193.572388,0

-0.349731,0.710571,-0.627808,48.901367,-359.479980,-140.227661,0

-0.352783,0.354858,-0.329346,99.621582,-419.294434,-166.106567,0

-0.300781,0.105835,-0.128052,12.219238,-396.711426,-79.375610,0

0.072632,0.024780,0.364624,0.012207,-361.799316,42.511597,0

0.057129,-0.119995,0.347778,-7.556152,-298.627930,86.945190,0

0.740601,0.354370,0.919434,42.492676,-272.077637,95.307007,0

0.758301,0.414307,0.573608,92.358398,-250.959473,67.841187,0

1.197998,0.678223,0.940308,114.636230,-145.856934,-9.490356,0

1.218140,0.556396,0.583984,127.087402,-115.949707,17.792358,0

1.386841,0.688354,0.603638,157.727051,-64.741211,51.605835,0

1.082275,1.046753,0.367554,188.671875,12.346191,-24.321899,0

1.092163,0.795166,0.310791,83.874512,60.991211,6.317749,0

0.821167,1.042114,0.246216,103.894043,169.206543,-23.345337,0

1.049072,0.614624,0.219482,59.338379,191.118164,5.524292,0

0.638306,0.820190,0.124390,44.201660,268.754883,-45.745239,0

0.337524,0.938354,0.185913,5.017090,261.186523,-83.526001,0

0.143311,0.729980,0.125854,-13.354492,224.199219,-29.265747,0

0.024536,1.019897,0.305786,-26.354980,209.978027,-43.547974,0

-0.313477,0.756714,0.091187,-11.096191,232.561035,-83.587036,0

-0.488892,1.002930,0.140137,-33.129883,175.249023,-34.819946,0

-0.934326,0.936157,-0.025024,-99.780273,183.916016,-79.131470,0

-1.232544,0.635376,-0.248779,-77.990723,49.577637,-60.393677,0

-0.934326,0.511475,-0.239136,-89.099121,-65.900879,-97.380981,0

-0.666992,0.157349,-0.306885,-32.641602,-117.841797,-168.914185,0

-0.334229,0.192993,-0.036743,15.942383,-146.345215,-114.714966,0

-0.417969,0.136475,0.083374,38.830566,-172.285156,-40.191040,0

-0.261230,0.287231,0.177490,28.820801,-209.821777,-24.321899,0

0.726196,0.383545,0.595215,-163.562012,-230.695801,-39.519653,0

0.159302,0.185303,0.743042,-26.354980,15.092773,-122.832642,0

0.517334,-0.277954,1.553345,127.880859,36.943359,-76.079712,0

0.102051,-0.071655,1.489502,-99.902344,71.916504,-20.171509,0

0.677368,-1.104980,2.712646,101.757812,-153.791504,-14.739380,0

0.312744,0.862061,1.931274,-31.726074,58.122559,126.740112,0

0.036499,-0.008057,1.413696,-27.941895,6.364746,71.564331,0

-0.227539,-0.064453,1.328491,-30.932617,13.261719,119.843140,0

0.241577,0.034790,1.133545,121.533203,40.056152,110.443726,0

0.018066,0.335205,1.252930,-36.486816,33.464355,112.885132,0

0.150635,0.203735,0.867676,-21.228027,33.769531,113.434448,0

-0.082886,0.317261,0.815796,-10.119629,77.592773,123.200073,0

0.225098,0.212280,0.510010,-62.731934,65.141602,120.880737,0

-0.208984,0.443604,0.697632,44.445801,52.446289,170.258179,0

0.001587,0.132812,0.684814,-53.515625,106.767578,160.492554,0

-0.268677,0.874390,0.601562,164.440918,241.594238,232.819214,0

-0.653198,1.370605,-0.321655,268.872070,190.996094,104.828491,0

-0.621216,1.355835,-1.125977,526.074219,81.682129,16.937866,0

0.258667,0.738647,-0.630249,-112.048340,-92.390137,-28.777466,0

0.037720,0.961060,-0.629517,-66.149902,-331.098633,-91.582642,0

0.617798,0.340942,0.079102,-220.141602,-377.424316,-155.913696,0

0.593628,0.513062,0.220215,-115.832520,-279.523926,-213.652954,0

1.042358,-0.013184,0.728882,11.486816,-219.465332,-214.690552,0

1.037720,0.248657,1.206299,75.024414,-180.219727,-197.234497,0

0.805542,0.360229,1.598267,89.611816,-160.993652,-160.430298,0

0.507324,0.714966,1.900146,118.237305,-135.786133,-98.845825,0

0.743164,0.539307,2.038330,85.400391,-132.551270,-75.530396,0

0.701294,0.806885,1.942993,105.847168,76.677246,-113.616333,0

0.816772,0.870483,1.590088,-143.908691,120.439453,-15.288696,0

0.724487,0.763062,1.225952,-50.585938,301.286621,-59.234009,0

0.606567,0.831909,0.750854,-98.498535,392.656250,-111.663208,0

0.632324,0.595947,0.048706,27.722168,584.916992,-213.103638,0

0.428955,0.618286,-0.572510,-130.664062,433.000488,-191.069946,0

0.136719,0.123901,-1.505371,-140.673828,252.641602,-178.801880,0

0.112427,-0.258057,-2.039795,-155.871582,54.399414,-82.915649,0

0.063843,-0.275879,-1.916504,-31.848145,-68.708496,-1.372681,0

0.092407,-0.191772,-1.141235,53.112793,-247.358398,77.240601,0

0.137939,0.379883,-0.534668,-20.068359,-485.273438,123.505249,0

0.291626,0.527100,0.040405,-21.594238,-539.777832,45.380249,0

0.761353,0.214111,0.473389,-20.556641,-550.397949,1.007690,0

1.093872,0.322144,0.982788,-2.612305,-450.117188,-68.694458,0

1.007935,0.510010,0.895508,102.612305,-197.492676,-12.725220,0

1.155518,0.637939,0.896118,90.405273,-165.876465,-53.496704,0

1.221313,0.761841,0.840210,103.955078,-122.602539,-14.983521,0

1.159546,0.571167,0.834106,54.760742,-119.001465,3.082886,0

1.159546,0.670776,0.712524,22.961426,-87.629395,-6.865845,0

0.989014,0.620117,0.849121,55.676270,-42.890625,20.905151,0

0.789307,0.506104,0.722900,-27.331543,-41.059570,15.350952,0

0.721436,0.818359,1.102783,10.021973,-24.213867,7.416382,0

1.051758,1.059570,1.380127,-15.002441,50.249023,-43.364868,0

1.248291,0.861328,1.197144,-54.675293,150.102539,-82.793579,0

1.258301,0.952148,1.107544,-59.558105,208.757324,-62.590942,0

1.237793,0.964600,1.040039,-15.612793,335.161133,-123.870239,0

1.085205,0.736328,0.852295,-3.710938,392.290039,-161.528931,0

0.901123,0.858276,0.654297,-32.092285,404.619141,-188.811646,0

0.715454,0.607300,0.389282,-21.472168,445.390625,-170.195923,0

0.483032,0.746460,-0.093140,-92.028809,443.498535,-188.262329,0

0.253540,0.341919,-1.034424,-114.184570,321.733398,-216.826782,0

0.041138,-0.204468,-2.075806,-226.000977,28.947754,-134.002075,0

-0.078613,-0.335693,-2.021973,-56.933594,-3.583984,-69.732056,0

-0.047363,-0.238770,-1.497070,43.103027,-145.979004,1.068726,0

-0.115601,-0.042725,-0.830811,90.039062,-199.628906,63.324585,0

-0.007568,0.059204,-0.556396,20.642090,-324.140625,84.381714,0

0.081177,0.365112,-0.082886,59.216309,-371.809082,84.808960,0

0.431763,0.436523,0.358887,38.342285,-420.393066,60.333862,0

0.597046,0.273193,0.693848,-11.523438,-405.683594,32.807007,0

0.800415,0.777710,0.986694,78.808594,-299.787598,36.286011,0

1.369019,0.628540,0.864868,76.123047,-241.560059,54.230347,0

1.320923,0.863403,1.302734,100.109863,-233.015137,63.812866,0

0.986206,0.740967,0.581787,60.681152,-48.994141,20.172729,0

1.246216,0.570801,0.908569,118.481445,-150.312500,27.252808,0

0.943726,0.855225,0.893799,124.218750,-61.506348,61.005249,0

0.822998,0.681519,0.858643,94.494629,-21.345215,38.605347,0

0.760132,0.849854,0.924316,-44.482422,-38.557129,8.637085,0

0.904297,0.622314,0.627441,-27.697754,20.463867,-5.950317,0

0.991211,0.573364,0.703857,-56.140137,17.045898,-12.603149,0

1.239380,0.714722,0.912598,-50.769043,62.089844,-29.082642,0

1.464966,0.733765,1.153564,-26.171875,151.689453,-60.332642,0

1.405151,0.701050,0.959473,-54.309082,238.298340,-51.116333,0

1.243652,0.825317,1.043945,-53.210449,254.838867,-58.989868,0

1.155273,0.577026,0.956055,-40.942383,322.038574,-80.901489,0

0.901489,0.813477,0.697021,-32.458496,391.130371,-105.620728,0

0.721802,0.453857,0.632568,-24.890137,375.444336,-111.296997,0

0.438110,0.610352,0.134888,-95.446777,405.534668,-117.095337,0

0.113892,0.539185,-0.476318,-69.628906,409.746094,-158.660278,0

-0.251953,-0.033325,-1.732178,-200.732422,121.599121,-136.687622,0

-0.409790,-0.176392,-1.741699,-129.138184,21.318359,-89.324341,0

-0.308960,-0.246948,-1.802979,-6.335449,-78.474121,-26.580200,0

-0.148682,-0.119995,-1.159668,81.066895,-178.022461,29.205933,0

-0.011597,0.204590,-0.752930,112.683105,-269.636230,58.991089,0

0.269897,0.442993,-0.299072,104.321289,-375.532227,53.131714,0

0.575439,0.870972,0.132568,90.649414,-434.553223,5.524292,0

1.112549,0.582764,0.656738,68.066406,-504.621582,-68.938599,0

1.203613,0.848999,1.100586,69.836426,-344.282227,-42.449341,0

1.485352,0.371704,1.054443,158.398438,-174.909668,-74.187622,0

1.226074,1.054077,0.853760,134.106445,-134.809570,-16.997681,0

1.232300,0.646484,1.228271,146.862793,-110.944824,-10.955200,0

0.831665,0.737793,0.927490,22.839355,-41.120605,-21.026001,0

0.935913,0.641113,1.274170,35.534668,-12.189941,-24.627075,0

0.610107,0.785278,1.170044,7.580566,61.296387,37.445679,0

0.346436,0.734009,1.100586,-17.138672,83.146973,67.597046,0

0.462646,0.394531,0.890015,-28.552246,94.987793,93.842163,0

0.499268,0.427124,0.864136,-44.543457,87.236328,28.107300,0

0.614136,0.501953,0.842896,-71.887207,99.687500,44.953003,0

0.480957,0.276855,0.834717,-56.201172,62.211914,22.369995,0

0.470947,0.409302,0.800659,-84.521484,56.779785,47.455444,0

0.308960,0.166260,0.736572,79.663086,54.216309,26.825562,0

0.198608,0.398315,0.712402,48.107910,98.771973,16.693726,0

0.197266,0.437134,0.800293,-76.159668,11.613770,15.961304,0

0.089111,0.298828,0.715088,-33.129883,46.159668,65.521851,0

0.101196,0.265747,0.723999,-19.396973,33.220215,11.139526,0

0.164429,0.333130,0.918335,-16.589355,-9.809570,53.681030,0

0.126587,0.333984,0.921997,-6.701660,-13.349609,-3.447876,0

0.283081,0.226074,0.906982,-11.645508,-22.138672,51.849976,0

0.250732,0.319702,0.883057,19.299316,-32.270508,12.604370,0

0.219849,0.379639,0.813843,9.472656,-21.955566,13.580933,0

0.369995,0.294189,0.805908,20.336914,-41.242676,-9.002075,0

0.359863,0.340698,0.793457,34.069824,-35.444336,-17.241821,0

0.606812,0.196411,0.986572,28.332520,-43.989258,-6.438599,0

0.536865,0.289062,0.870361,33.459473,-20.307617,-3.264771,0

0.503174,0.205566,0.933594,8.923340,-15.180664,-4.973755,0

0.474121,0.256348,0.918457,23.205566,-24.335938,-9.673462,0

0.503784,0.328735,0.898071,26.501465,-31.477051,-16.631470,0

0.510254,0.299194,0.839722,0.866699,-31.965332,-27.068481,0

0.445801,0.459961,0.895142,7.519531,-29.157715,-37.566528,0

0.532471,0.317993,0.802368,-39.111328,-33.247070,-48.003540,1

0.463013,0.360596,0.788452,14.721680,-10.358887,-28.045044,1

0.444946,0.212646,0.696533,5.505371,-60.957031,-20.049438,1

0.394165,0.397705,0.425781,-10.424805,-69.196777,20.722046,1

0.506348,-0.006592,0.079590,-12.011719,6.425781,-4.424438,1

0.644165,0.339355,0.635498,3.918457,1.054688,3.143921,1

0.471313,1.045288,1.895264,-45.458984,23.881836,-46.416626,1

0.564087,1.850708,3.771484,-72.070312,76.738281,-22.734985,1

1.264648,1.475098,3.440308,-125.170898,155.778809,-33.782349,1

1.336670,1.042969,2.804443,-99.780273,220.170898,-20.964966,1

1.063477,0.499146,1.718018,-85.559082,251.054688,-43.731079,1

0.868896,0.014404,0.973999,-68.713379,252.885742,-1.067505,1

1.105103,-0.006714,0.470703,-19.152832,266.069336,-9.124146,1

1.345825,-0.139893,0.482788,18.688965,224.443359,-6.926880,1

1.327637,0.025757,0.687866,107.861328,240.190430,-38.543091,1

1.249756,-0.172607,0.623291,18.078613,233.964844,-33.294067,1

1.314087,0.256226,0.970337,29.858398,257.707520,-68.145142,1

1.224609,0.347656,0.339844,-18.115234,219.987793,-151.702271,1

-0.158325,0.032959,-2.893555,40.234375,253.251953,-160.857544,1

-1.418335,-1.201172,-3.997559,-132.434082,-60.529785,-71.990356,1

-0.809814,-0.893188,-3.903320,-80.676270,-208.112793,25.116577,1

0.274780,0.263672,-2.365112,23.205566,-241.682129,124.725952,1

1.679077,1.317017,0.361328,55.249023,-301.862793,136.810913,1

1.568237,0.482910,0.855469,82.409668,-214.521484,-3.569946,1

1.466309,-0.115601,-0.021606,69.165039,-219.892578,-6.255493,1

1.744629,0.103516,0.616333,17.529297,-311.079102,-3.020630,1

1.635864,-0.113770,0.884644,5.566406,-261.762695,-8.880005,1

1.449951,-0.043823,0.922729,90.466309,-217.695312,45.136108,1

0.955078,0.205566,1.317139,34.375000,-229.780273,68.634644,1

1.461670,0.184570,1.423828,12.768555,-246.076660,75.653687,1

2.695068,0.898315,2.250244,98.034668,-290.266113,16.388550,1

3.592407,1.712646,2.562500,196.850586,-269.514160,101.593628,1

1.793579,1.416138,2.891846,155.041504,-177.778320,112.274780,1

0.613770,1.532959,2.300293,127.331543,-6.574707,108.246460,0

0.069336,0.613281,0.379272,37.854004,94.133301,7.111206,0

0.599976,0.016357,0.274780,127.148438,118.791504,-23.284302,0

0.810913,0.144775,0.219116,-75.122070,99.077148,-11.992798,0

1.081665,0.083496,0.118408,-31.420898,103.349609,-66.680298,0

1.195312,0.278198,0.340698,-65.661621,37.370605,-4.485474,0

1.016113,0.255737,0.303101,-12.255859,16.008301,-39.763794,0

0.657837,0.062744,0.265259,-21.960449,-15.485840,-19.683228,0

0.634399,0.211426,0.139648,31.323242,-10.541992,1.434937,0

0.833618,0.203247,0.332886,25.219727,-52.473145,-5.950317,0

0.893799,0.457397,0.519043,53.662109,-44.538574,-7.354126,0

1.008667,0.185547,0.505737,27.905273,-56.684570,-2.227173,0

0.839966,0.455566,0.531128,37.976074,-33.613281,19.135132,0

0.843384,0.383545,0.546265,52.197266,-25.373535,24.323120,0

0.841064,0.445557,0.480347,31.933594,-14.082031,9.552612,0

0.990479,0.325317,0.480469,19.787598,-4.682617,-10.405884,0

0.911499,0.245117,0.401489,14.660645,13.994141,2.716675,0

0.783203,0.426392,0.311157,-4.321289,20.585938,17.731323,0

0.716064,0.207520,0.119385,4.895020,12.468262,-12.969360,0

0.676514,0.279907,0.211182,9.655762,10.026855,-7.171021,0

0.578247,0.212158,0.197021,8.007812,7.036133,4.730835,0

0.690918,0.484253,0.351074,-21.044922,7.585449,-31.463013,0

0.601929,0.884155,0.898560,-119.311523,36.210938,-61.370239,1

0.939453,1.553223,1.700317,-86.718750,52.690430,-102.752075,1

1.414062,1.730225,2.723633,-111.926270,82.719727,-120.452271,1

2.097046,1.951416,3.312134,-87.817383,214.372559,-84.990845,1

2.117676,1.115845,2.293091,-84.460449,232.438965,-82.427368,1

1.313843,0.601074,1.359253,-97.033691,243.364258,-49.224243,1

0.932373,0.149292,0.576904,-20.617676,255.632324,-33.904419,1

0.948853,-0.031250,0.286011,23.510742,237.687988,-50.628052,1

1.263550,-0.086182,0.952881,115.673828,239.519043,-104.644165,1

1.380127,0.061401,0.828125,14.355469,203.386230,-120.696411,1

1.567627,-0.132568,0.765869,56.774902,256.853027,-145.903931,1

1.377563,0.482056,0.982666,-25.805664,253.862305,-140.105591,1

1.139038,0.327271,-0.595337,47.924805,216.264648,-169.097290,1

0.062622,-0.551270,-2.879883,-88.549805,121.049805,-241.118774,1

-0.454346,-2.228394,-3.997559,-7.128906,-89.460449,-75.530396,1

-0.723511,-0.772583,-3.562256,-66.760254,-196.943359,152.557983,1

0.267334,-0.133423,-2.203247,7.397461,-234.846191,113.800659,1

1.809570,0.836426,-0.192017,88.696289,-196.699219,165.680542,1

2.182495,0.907837,1.149292,110.485840,-240.095215,85.114136,1

1.715332,0.396118,1.416260,9.960938,-228.376465,108.856812,1

1.858765,0.124756,1.089111,15.942383,-316.267090,50.202026,1

1.852417,-0.055176,1.586914,-32.824707,-388.898926,7.782593,1

1.401489,-0.106079,1.168945,13.012695,-297.956543,39.337769,1

1.033447,-0.162231,1.555786,36.206055,-321.333008,37.567749,1

2.512329,1.048584,2.427124,158.093262,-321.516113,110.748901,1

3.175781,1.570435,2.431519,182.934570,-172.224121,46.234741,1

2.379028,2.071533,2.608643,294.262695,-60.773926,161.347046,1

0.921143,1.439453,1.259521,74.475098,64.775391,-8.452759,0

0.943481,0.203369,0.686279,1.416016,110.551758,-15.960083,0

0.220825,-0.091919,0.136230,20.092773,127.641602,63.995972,0

0.438354,0.141724,0.249023,17.590332,141.496582,28.656616,0

0.932739,0.288818,0.027466,-9.631348,103.166504,-10.650024,0

0.959595,0.234131,0.530884,58.666992,-44.538574,-78.276978,0

0.998901,-0.037964,0.598877,-47.717285,-9.077148,-63.628540,0

0.899414,0.095825,0.227539,-49.060059,35.478516,-17.424927,0

0.864868,0.119873,0.233276,-17.504883,-21.162109,-1.250610,0

0.810181,0.190918,0.484741,27.844238,-39.350586,16.510620,0

0.729126,0.374634,0.569580,18.933105,-34.040527,21.637573,0

0.905884,0.312744,0.593750,14.050293,-42.341309,-0.640259,0

0.868164,0.412842,0.669434,20.764160,-37.946777,19.379272,0

0.790039,0.401367,0.618408,26.379395,-16.157227,9.857788,0

0.769287,0.418213,0.680054,36.572266,-9.321289,13.825073,0

0.772095,0.458740,0.610107,30.346680,13.811035,-7.598267,0

0.836914,0.292358,0.508179,27.233887,5.266113,-15.654907,0

0.935303,0.232300,0.440063,35.107422,16.618652,-8.086548,0

0.866089,0.265015,0.414062,42.431641,19.731445,10.529175,0

0.866455,0.295166,0.450195,26.806641,16.862793,17.548218,0

0.897095,0.241089,0.378174,-0.781250,2.946777,11.505737,0

0.732544,0.208008,0.282349,-11.462402,-2.485352,17.304077,0

0.472900,0.458008,0.376465,-1.086426,-10.297852,-13.274536,0

0.348022,0.384399,0.457397,-99.230957,-26.350098,-74.004517,1

0.223633,1.066650,0.837646,-128.771973,-8.039551,-83.892212,1

0.306152,1.196533,1.012451,-126.452637,26.445312,-126.067505,1

0.754150,1.683228,2.265137,-103.320312,27.055664,-135.344849,1

1.447998,2.016724,3.262085,-24.340820,132.402344,-149.993286,1

2.248169,1.778931,2.837036,-83.911133,164.995117,-127.288208,1

1.709717,1.043701,2.015015,-38.317871,202.043457,-89.568481,1

1.195312,0.616455,1.365479,-6.823730,245.500488,-91.582642,1

0.994263,0.300171,0.721802,-34.228516,252.397461,-95.122681,1

1.644531,0.102417,0.994263,46.582031,257.463379,-124.236450,1

1.513184,-0.037231,0.906250,-28.369141,261.430664,-123.381958,1

1.498657,0.048462,0.623291,15.270996,283.464355,-84.868774,1

1.349243,0.521973,0.699463,-56.933594,245.927734,-172.698364,1

1.263672,0.119019,-0.419312,-92.028809,147.233887,-122.893677,1

0.176147,0.183228,-1.839966,-72.863770,90.227051,-112.029419,1

-0.842285,-0.776733,-3.997559,-108.630371,-28.364258,-86.089478,1

-1.629272,-0.927979,-3.756836,-118.762207,-144.453125,33.722534,1

-0.750366,0.141846,-2.971069,-29.162598,-144.819336,102.875366,1

1.888428,0.746704,-0.477905,61.657715,-250.776367,92.011108,1

1.800781,0.665649,1.338989,22.839355,-221.662598,65.277710,1

1.525513,0.031860,0.447754,-8.349609,-227.033691,60.333862,1

1.595215,0.033569,0.618896,52.563477,-287.397461,49.957886,1

1.858887,-0.065063,0.777832,18.017578,-381.635742,27.313843,1

1.642212,0.052856,0.981689,26.440430,-342.817383,71.381226,1

1.738403,-0.353760,1.368164,-19.702148,-316.877441,43.915405,1

2.132812,0.190918,1.466919,-28.125000,-332.990723,64.728394,1

3.385742,0.721558,2.029053,33.215332,-269.147949,15.778198,1

3.794678,1.586182,2.785645,178.906250,-181.562500,-41.045532,0

1.782471,1.407959,3.102417,126.965332,-32.575684,96.222534,0

0.597168,1.078491,1.601440,28.698730,132.768555,-33.782349,0

0.852295,-0.063843,0.536865,43.896484,156.145020,-6.865845,0

0.651001,0.075317,0.284912,12.829590,160.295410,18.829956,0

0.777710,-0.015259,0.127808,53.417969,154.680176,6.073608,0

0.883667,0.072144,0.082153,18.017578,128.312988,18.707886,0

0.965088,0.130249,0.082642,0.439453,88.090820,-4.119263,0

0.988403,0.085327,0.233643,-16.345215,50.859375,-20.964966,0

0.940063,-0.006714,0.265259,-37.402344,-19.270020,-8.574829,0

0.805054,0.137085,0.420044,-5.847168,-36.115723,19.074097,0

0.700317,0.172241,0.486572,-12.133789,-52.167969,9.430542,0

0.722778,0.158447,0.558594,13.623047,-50.703125,21.576538,0

0.749146,0.230713,0.558594,13.134766,-56.745605,29.999390,0

0.819092,0.392334,0.625366,30.773926,-57.233887,23.529663,0

0.984497,0.430054,0.645630,54.028320,-68.220215,17.853394,0

0.920410,0.395020,0.680786,36.999512,-58.149414,6.195679,0

0.625854,0.514404,0.725464,27.783203,-35.017090,9.308472,0

0.379517,0.286011,0.456055,-1.757812,2.702637,-6.804810,0

0.247925,0.274292,0.315308,-14.147949,14.909668,-10.711060,0

0.659668,0.103882,0.134644,-3.771973,-0.654297,-22.673950,0

0.926392,0.243896,0.259033,-31.359863,-23.359375,-30.181274,0

1.781616,1.321655,0.951660,42.248535,-44.355469,-14.434204,1

2.212769,2.876099,2.433960,-145.556641,-56.867676,-152.434692,1

2.163452,1.826660,2.992554,-99.658203,92.485352,-115.691528,1

1.884766,1.060669,2.231567,-109.057617,216.325684,-110.015259,1

1.660400,0.590454,1.403320,-85.009766,330.888672,-96.465454,1

2.081787,0.289551,1.052124,-41.552734,382.890625,-110.442505,1

2.235474,0.115356,1.055786,-7.373047,362.565918,-137.725220,1

1.982666,-0.095825,0.841919,-26.904297,348.833008,-136.382446,1

1.629883,0.187256,0.639404,17.285156,318.986816,-127.654419,1

1.538696,0.493408,0.842896,70.751953,258.745117,-161.773071,1

0.985718,0.405151,-0.337402,68.127441,181.230469,-171.965942,1

0.365845,-1.131104,-3.404785,-186.938477,64.165039,-176.726685,1

-0.684082,-2.060303,-3.997559,-71.398926,6.608887,18.402710,1

-0.031616,-0.866455,-2.761719,-55.529785,-118.391113,145.905151,1

1.051514,0.737915,0.005615,-44.909668,-191.206055,187.286987,1

1.118042,0.665039,1.057983,-26.416016,-167.158203,146.820679,1

0.941162,0.182129,0.782471,-110.400391,-247.907715,105.499878,1

0.723877,0.113525,0.905029,-61.877441,-265.119629,53.619995,1

0.984375,-0.147949,0.573975,-139.208984,-329.633789,-42.510376,1

1.177734,-0.250610,0.544678,-70.483398,-345.136719,-87.249146,1

1.431274,-0.727173,1.338501,57.263184,-306.989746,-44.585571,1

1.987305,-0.191772,1.827881,-1.879883,-410.932617,38.239136,1

3.085449,1.501343,3.340698,325.512695,-294.355469,41.779175,1

2.486450,1.503418,2.373413,45.422363,-209.577637,58.441772,0

1.537842,1.298584,2.816895,105.053711,-53.022461,-4.058228,0

0.376709,0.528198,1.391113,15.759277,118.852539,7.355347,0

0.393799,0.158447,0.511108,-4.809570,174.943848,-6.865845,0

0.511719,-0.023560,0.208130,4.406738,170.488281,-1.921997,0

0.874268,0.050415,0.135620,42.248535,125.688477,3.204956,0

1.308838,0.259277,0.486938,65.563965,71.000977,-9.490356,0

1.110474,0.230957,0.392578,32.604980,79.667969,0.519409,0

0.794067,0.128174,0.393555,-22.143555,4.716797,18.036499,0

0.474365,0.210693,0.334717,-15.979004,6.059570,35.187378,0

0.504639,0.222778,0.323975,-8.044434,-7.429199,23.102417,0

0.638550,0.406372,0.446045,-11.218262,-40.266113,32.135620,0

0.760254,0.309937,0.576782,-12.622070,-80.000000,-21.209106,0

0.754883,0.378296,0.739868,16.064453,-69.685059,14.618530,0

0.686035,0.456787,0.701172,7.641602,-75.544434,2.533569,0

0.614136,0.757935,0.784912,12.524414,-66.938477,-5.645142,0

0.721924,0.691162,0.800415,23.815918,-77.009277,-38.176880,0

0.705933,0.728149,0.911621,27.844238,-43.012695,-36.406860,0

0.752075,0.390381,0.680420,-26.721191,-36.176758,-63.628540,0

0.533447,0.268311,0.674072,-28.796387,-2.668457,-32.866821,0

0.252930,0.155762,0.403442,-61.938477,42.009277,-24.138794,1

0.636353,0.828125,1.028931,-66.577148,4.045410,-40.007935,1

1.010132,1.768188,2.362183,-26.843262,62.883301,-88.469849,1

2.154053,1.611938,2.322754,-88.610840,194.719238,-71.257935,1

1.991699,1.399170,2.422119,-18.054199,255.327148,-106.047974,1

1.307251,0.639526,1.568115,-62.670898,286.455078,-99.089966,1

0.958252,0.030762,0.773315,-50.036621,303.666992,-82.488403,1

1.106689,-0.058594,0.519531,-22.021484,346.269531,-94.573364,1

1.198608,0.325806,0.590454,6.237793,375.505371,-110.381470,1

1.071411,0.538208,0.476562,-41.064453,347.856445,-168.120728,1

0.996460,0.485107,0.048462,-6.701660,323.015137,-138.884888,1

0.776611,0.331543,-1.143433,39.807129,208.757324,-230.620728,1

0.870850,-0.806030,-2.202759,3.491211,60.502930,-95.488892,1

0.283447,-0.965332,-2.654907,-3.771973,-105.085449,53.009644,1

0.129517,-0.220337,-2.244751,40.051270,-233.137207,158.722534,1

1.272949,1.052124,-0.451416,25.952148,-503.461914,149.567261,1

1.985840,1.134399,0.986206,123.608398,-460.432129,-3.264771,1

1.632812,0.719849,1.444946,176.953125,-355.268555,23.651733,1

1.560303,0.083984,1.618530,138.073730,-340.620117,41.840210,1

1.107544,0.039551,1.209717,147.167969,-220.991211,39.215698,1

0.843994,-0.048340,1.249023,79.479980,-219.282227,100.494995,1

1.979004,0.620361,1.427979,36.938477,-275.129395,147.186890,1

2.401367,1.373901,2.102539,108.532715,-146.223145,140.106812,0

1.776245,1.386841,2.460571,88.879395,-113.020020,63.873901,0

0.696289,1.214600,1.850098,90.222168,-46.186523,102.814331,0

0.047119,0.775024,1.202881,3.918457,82.536621,-45.134888,0

0.432373,0.063843,0.596191,-2.612305,98.833008,-96.770630,0

0.742188,0.082886,0.350952,-6.701660,128.435059,-42.144165,0

1.046021,0.282959,0.251343,12.646484,118.120117,-19.744263,0

1.520264,0.546875,0.312500,31.445312,79.851074,-24.016724,0

0.809692,0.189087,0.437378,23.449707,18.937988,12.726440,0

0.586426,0.306274,0.397461,-10.119629,56.718750,32.440796,0

0.616577,0.276245,0.178345,-12.255859,46.647949,7.233276,0

0.726685,0.327515,0.320923,14.538574,-23.115234,22.980347,0

0.554688,0.426636,0.492188,15.026855,-46.857910,27.680054,0

0.672729,0.479370,0.689331,37.731934,-39.777832,6.317749,0

0.702271,0.524414,0.688721,21.374512,-37.092285,18.219604,0

0.685913,0.491089,0.638062,20.214844,-33.002930,12.909546,0

0.636230,0.516968,0.578857,20.764160,-26.655273,17.670288,0

0.691772,0.510376,0.542480,21.679688,-33.979492,0.397339,0

0.770996,0.521851,0.580688,27.783203,-34.040527,-1.433716,0

0.815674,0.449585,0.591187,27.111816,-24.824219,-2.837524,0

0.800903,0.472046,0.581909,26.257324,-5.964355,3.082886,0

0.771851,0.470825,0.531128,12.646484,-4.255371,-4.363403,0

0.648804,0.354980,0.525757,6.726074,3.862305,5.646362,0

0.480835,0.346069,0.473267,-5.175781,25.529785,-13.152466,0

0.552002,0.297607,0.340942,-26.599121,20.219727,9.308472,0

0.376831,0.794434,0.429688,13.256836,37.797852,4.059448,1

0.791382,0.911621,1.055664,-31.665039,-11.274414,-68.633423,1

1.018677,1.813965,2.012085,-27.087402,73.381348,-88.652954,1

1.355469,1.892578,2.935181,-55.285645,176.774902,-51.543579,1

0.610596,1.839355,2.590210,-38.928223,234.392090,-90.239868,1

0.385010,1.453735,2.039551,-52.600098,221.452637,-134.490356,1

0.802124,0.706543,1.233032,-31.909180,253.251953,-128.753052,1

1.428345,0.409546,0.968506,20.947266,272.111816,-137.786255,1

1.609375,0.424805,1.257690,-37.036133,210.588379,-153.960571,1

1.751465,0.243408,1.080078,-8.837891,257.890625,-126.311646,1

1.551392,0.696777,1.156860,18.750000,271.074219,-175.811157,1

1.368408,0.536743,0.722534,-8.715820,229.570312,-202.422485,1

1.024902,0.271484,-0.943848,11.242676,273.637695,-213.897095,1

0.995850,-2.132202,-3.774780,-143.664551,65.202637,-192.778931,1

0.893799,-2.324707,-3.997559,-30.444336,31.145020,33.051147,1

0.913452,-0.094360,-2.913818,12.402344,-127.058105,209.808960,1

1.311401,1.060303,0.043457,52.197266,-182.172852,218.720093,1

0.970459,1.182983,1.409668,-32.092285,-199.873047,198.517456,1

0.920532,0.424805,1.207031,-115.954590,-277.692871,111.054077,1

1.243164,-0.048950,0.716675,-71.337891,-350.812988,45.197144,1

1.340698,0.122314,1.283081,47.314453,-355.878906,93.231812,1

1.309082,0.016357,1.605957,-2.795410,-391.401367,35.980835,1

1.374756,0.305908,1.896484,8.984375,-301.618652,174.164429,1

2.137695,0.734619,2.613403,63.488770,-394.025879,98.297729,1

2.566284,2.585083,3.984253,263.439941,-288.923340,205.780640,0

1.480835,1.034058,2.864258,19.360352,-90.742188,74.494019,0

0.670288,0.871094,1.477539,62.573242,98.833008,122.528687,0

-0.002197,0.296387,-0.016235,102.795410,151.689453,50.385132,0

0.429321,0.395508,0.401001,91.503906,77.287598,18.280640,0

0.873047,0.382812,0.361816,54.943848,74.907227,-41.961060,0

1.060669,0.318481,0.448120,4.650879,17.900391,-51.543579,0

0.964478,0.253906,0.533325,-40.942383,-13.715820,-44.829712,0

0.864990,0.184937,0.414429,-30.261230,13.505859,-30.547485,0

0.755371,0.161499,0.308105,7.214355,9.538574,-5.034790,0

0.635132,0.407837,0.463013,-0.720215,-17.744141,26.093140,0

0.632568,0.362183,0.495117,10.083008,-32.148438,3.632202,0

0.775513,0.447388,0.716797,13.928223,-28.547363,14.923706,0

0.683594,0.543091,0.716553,-0.476074,-22.810059,2.350464,0

0.729248,0.439941,0.613403,-7.678223,-14.204102,-2.166138,0

0.634399,0.539062,0.673096,2.941895,-9.626465,-7.598267,0

0.781250,0.427246,0.625488,-12.255859,-6.391602,-16.570435,0

0.728638,0.418091,0.578003,7.397461,8.989258,-2.776489,0

0.717529,0.342285,0.493530,-6.884766,-2.058105,-0.701294,0

0.699463,0.304321,0.394897,20.825195,5.083008,-6.804810,0

0.796997,0.312378,0.391724,17.712402,-17.988281,-2.593384,0

0.499390,0.253418,0.455566,26.562500,-12.739258,3.143921,0

0.366943,0.194946,0.305420,-27.941895,0.200195,-11.992798,0

0.588135,0.181152,0.231445,-13.171387,-5.354004,-9.734497,1

0.624634,1.270142,0.801270,-50.097656,-5.537109,-41.289673,1

0.896362,2.105347,1.974365,-75.183105,-37.519531,-85.967407,1

1.443848,2.573242,2.762329,-75.488281,68.315430,-106.963501,1

1.312744,1.983276,2.341064,-53.149414,117.937012,-155.425415,1

1.378174,1.004272,1.770752,-106.066895,175.554199,-151.580200,1

1.183960,0.357666,1.234619,-41.125488,250.139160,-137.053833,1

1.531860,-0.112183,0.848999,-82.507324,285.295410,-95.733032,1

1.519653,-0.147339,1.007080,59.582520,317.399902,-96.160278,1

1.323486,0.073486,0.990479,-13.049316,305.925293,-106.658325,1

1.470093,0.252686,1.033936,11.059570,300.004883,-163.543091,1

1.451660,0.370483,0.617676,-18.603516,296.159668,-178.374634,1

0.529297,0.136475,-1.146729,2.453613,282.182617,-177.214966,1

0.316772,-1.630005,-3.997559,-55.529785,147.722168,-128.753052,1

0.757446,-1.391968,-3.997559,19.360352,-133.649902,150.543823,1

1.582031,0.724976,-1.106689,15.881348,-318.830566,192.108765,1

2.031372,1.071655,1.047485,0.439453,-291.975098,164.093628,1

1.722168,0.549683,1.396484,36.694336,-231.428223,149.078979,1

1.471558,0.099854,0.940674,-109.301758,-378.095703,82.855835,1

1.758179,-0.132202,1.155518,4.956055,-353.193359,62.103882,1

1.888062,-0.450073,1.117188,-43.383789,-408.613281,12.848511,1

1.477417,-0.372192,1.697998,72.705078,-328.291016,102.326050,1

2.077515,0.583130,2.247559,33.825684,-292.646484,132.172241,0

2.133057,1.263672,2.834595,70.935059,-239.851074,74.066772,0

3.053467,2.139160,3.123535,163.342285,-176.923828,13.703003,0

1.200928,1.990356,2.732422,27.661133,-14.143066,25.543823,0

0.840332,0.395142,0.757812,-48.571777,113.603516,-73.455200,0

0.419800,0.129883,0.656006,-0.048828,129.045410,-40.007935,0

0.517334,0.001099,0.363525,-53.027344,140.947266,-39.763794,0

0.832642,-0.009521,0.399536,14.965820,155.168457,-44.341431,0

1.142090,0.093140,0.246826,-14.758301,145.524902,12.360229,0

1.051514,0.177124,0.235352,25.036621,75.212402,6.867065,0

0.975464,0.184082,0.407227,20.153809,22.355957,24.017944,0

0.595093,0.121094,0.382324,9.350586,-1.325684,52.033081,0

0.517944,0.149902,0.442017,7.885742,-1.508789,63.385620,0

0.534668,0.346680,0.380981,8.068848,-7.246094,54.840698,0

0.803101,0.368286,0.559082,14.599609,-48.322754,33.844604,0

0.769897,0.279907,0.826904,14.233398,-77.985840,62.592163,0

0.935669,0.249268,0.960815,36.938477,-37.336426,58.807983,0

0.864624,0.435669,1.047852,76.550293,-27.265625,112.274780,0

0.776001,0.897583,1.346069,160.107422,78.386230,119.232788,0

0.270630,1.361450,1.043579,85.461426,190.996094,117.584839,0

0.206177,1.075073,0.682373,45.117188,143.754883,-0.823364,0

0.229004,0.792603,0.489746,-6.518555,65.080566,-41.045532,0

0.213013,0.626099,0.431641,-27.453613,31.145020,-90.178833,0

0.339844,0.302979,0.365356,-37.524414,-34.833984,-139.190063,0

0.530029,0.228882,0.440552,-24.645996,-79.145508,-176.909790,0

0.794922,0.188110,0.489990,-53.271484,-124.677734,-152.068481,0

1.017578,0.027222,0.774780,-132.739258,-114.606934,-126.006470,0

0.803711,0.213989,0.675293,-45.275879,-88.117676,-54.412231,0

0.365723,0.381714,0.845581,-73.901367,-88.850098,-67.168579,0

0.685547,0.123779,1.425903,-77.685547,-102.033691,-54.534302,0

0.771973,-0.020874,1.531982,-42.468262,-42.768555,-40.068970,0

1.042969,-0.149414,1.697754,-44.848633,2.397461,-7.415161,0

1.729004,-0.563599,1.387817,-2.795410,171.770020,50.385132,0

1.923828,-0.717041,1.115356,126.599121,354.265137,130.036011,0

1.479370,-0.050537,0.804077,277.294922,597.551270,189.423218,0

1.538818,0.492920,0.260498,72.521973,604.753418,190.888062,0

1.490356,0.337036,-0.519897,50.671387,591.813965,285.858765,0

1.063110,0.545898,-0.483887,60.437012,384.843750,318.207397,0

1.277710,1.011963,-0.465698,-52.600098,301.286621,353.485718,0

0.619141,1.518433,-0.368286,-176.501465,174.333496,194.794312,0

0.869385,1.864746,-0.195190,-482.165527,134.965820,-79.741821,0

0.441040,1.744751,-0.222168,-565.905762,137.834473,-363.311157,0

1.036865,0.857910,0.576050,-352.648926,76.433105,-581.084595,0

1.628296,0.509644,0.414673,-291.796875,73.198242,-643.828735,0

1.796387,0.378296,0.448242,-220.751953,52.446289,-571.990356,0

1.504639,0.547119,-0.190552,-142.504883,-46.369629,-604.766235,0

1.493896,-0.665649,-0.129517,207.287598,-158.552246,-432.280884,0

1.278809,0.456421,1.239990,162.792969,-87.141113,-497.771606,0

1.270874,1.510986,0.519653,260.876465,-77.619629,-313.262329,0

0.501587,1.414429,0.812500,48.901367,179.155273,-226.592407,0

0.126221,1.309814,0.674927,42.248535,83.391113,-186.004028,0

0.304565,1.351685,0.717651,66.052246,302.324219,-209.685669,0

-0.139648,0.224487,0.644043,3.125000,389.177246,-96.709595,0

0.539307,0.566406,0.008057,-89.587402,405.534668,51.605835,0

0.864868,0.866089,-0.760498,220.654297,409.074707,170.807495,0

0.963989,0.731689,-0.864868,78.259277,389.543457,148.163452,0

0.564331,0.655273,-0.562378,168.896484,313.249512,242.157593,0

1.392334,0.364258,0.462280,-16.772461,256.547852,88.226929,0

1.186035,0.942505,0.085693,-285.632324,243.913574,79.010620,0

1.229248,0.708618,0.377197,-375.537109,241.228027,-31.279907,0

0.808838,0.607910,0.862915,-289.538574,236.955566,-121.734009,0

0.887085,-0.371582,0.496094,-262.988281,244.523926,-68.389282,0

0.255859,0.270996,1.085693,-197.375488,256.547852,-100.921021,0

0.274658,-0.075073,0.617310,-175.219727,298.723145,-63.994751,0

0.111816,0.078247,0.768921,-154.589844,298.479004,-196.135864,0

0.601807,-0.969849,0.279907,-104.785156,196.855469,-207.427368,0

-0.317749,-0.532227,0.308960,158.093262,-12.678223,-189.849243,0

1.935059,-2.425293,0.815430,460.583496,-85.004883,197.723999,0

0.570068,0.404175,0.501465,433.178711,136.125488,618.744507,0

0.694702,0.879395,0.545532,382.824707,163.164062,511.566772,0

0.724487,1.090576,0.755981,275.769043,259.721680,433.746948,0

0.351929,1.207886,0.197388,124.279785,286.394043,270.783081,0

0.379028,0.882690,0.036743,207.104492,195.695801,161.041870,0

0.168213,1.093628,-0.301270,154.736328,97.978516,72.296753,0

0.267456,0.954346,-0.043091,139.965820,26.628418,6.439819,0

0.380981,0.632202,0.171631,47.253418,-11.762695,-56.243286,0

0.649780,1.026733,0.017578,-103.869629,-22.993164,-66.680298,0

0.607544,1.471924,-0.537964,-246.203613,-110.639648,-150.359497,0

0.806274,1.243896,-0.186890,-286.669922,-238.752441,-364.104614,0

1.084351,1.032471,-0.261108,-324.572754,-260.053711,-576.751099,0

1.437378,0.357788,0.076050,-296.496582,-246.748047,-688.018188,0

1.931274,-0.215454,0.107544,-163.867188,-228.986816,-589.019165,0

2.015625,-0.463501,1.067017,121.533203,-150.983887,-411.345825,0

1.840820,-0.399536,1.020020,-79.394531,-148.908691,-255.401001,0

1.421265,-0.187500,1.000610,61.108398,-68.525391,-193.023071,0

1.513672,0.086426,1.462158,65.258789,4.533691,-74.431763,0

1.598022,-0.218384,1.225464,38.098145,104.814453,79.010620,0

1.702759,-0.231323,0.828979,42.736816,300.554199,219.513550,0

1.811035,0.007935,0.603149,130.871582,351.335449,381.073608,0

1.521118,0.550781,0.281738,217.297363,441.240234,393.890991,0

1.253784,0.543213,0.161011,132.153320,386.186523,370.514526,0

1.048096,0.733765,-0.108765,261.059570,393.144531,333.588257,0

0.816162,0.877319,-0.191040,234.631348,357.927246,265.106812,0

0.594727,1.048828,-0.426392,127.575684,249.895020,161.286011,0

0.681274,1.125366,-0.515747,132.519531,184.221191,101.776733,0

0.829224,1.346924,-0.761841,25.585938,74.357910,-3.142700,0

0.949585,0.972656,-0.701294,-87.023926,-59.309082,-57.525024,0

0.849976,1.177612,-0.697632,-147.265625,-189.741211,-147.063599,0

1.035645,0.800171,-0.253174,-194.995117,-302.839355,-247.283325,0

1.362793,0.703125,0.061035,-223.559570,-353.559570,-390.532837,0

1.329346,0.267944,0.176025,-261.035156,-323.530273,-472.808228,0

1.528687,-0.160889,0.780151,-112.658691,-176.801758,-491.851196,0

0.825073,0.119995,0.207520,-247.180176,-325.422363,-439.116821,0

2.007202,-0.775879,1.101440,14.477539,-163.801270,-405.242310,0

1.045288,-0.498535,1.067383,30.102539,-179.975586,-213.897095,0

1.025635,-0.411255,2.042358,154.980469,-43.500977,-130.584106,0

0.790039,-0.286255,0.932007,-67.065430,70.817871,-45.440063,0

0.678467,-0.269165,1.039917,58.544922,69.597168,63.568726,0

0.633301,-0.266113,0.774536,-43.505859,93.339844,170.502319,0

0.880371,-0.145020,0.817627,136.730957,153.703613,289.337769,0

0.540405,0.683228,0.563599,-9.143066,256.486816,283.722534,0

0.279297,0.267822,0.652344,87.048340,102.983398,290.253296,0

0.255005,0.834229,0.693481,-3.100586,87.968750,243.500366,0

-0.143921,0.678345,0.737305,62.084961,26.872559,170.685425,0

-0.013916,0.653687,0.784790,89.794922,-3.034668,111.115112,0

-0.063110,0.732178,0.843628,89.062500,-7.612305,48.737183,0

0.149658,0.347046,0.873779,-48.937988,-5.598145,9.369507,0

0.126465,0.316284,1.041138,50.976562,9.172363,-23.711548,0

0.030518,0.456055,0.982178,-50.158691,-36.604004,0.031128,0

0.125610,0.496948,1.445557,-56.933594,-33.613281,-14.251099,0

-0.035156,0.422241,0.853271,17.041016,17.473145,-7.415161,0

0.092041,0.521973,0.881836,17.529297,0.749512,-17.546997,0

0.012939,0.488281,0.979370,6.726074,21.867676,-12.542114,0

-0.003296,0.225342,0.764771,-130.847168,-30.256348,32.807007,0

0.201050,0.502075,1.005981,102.429199,25.895996,41.901245,0

0.088745,0.760864,1.015259,-30.444336,5.388184,1.740112,0

0.042480,0.215088,0.906006,-43.444824,0.810547,-7.659302,0

-0.054199,0.346313,0.918213,24.121094,7.036133,12.421265,0

0.077026,0.258545,0.846924,115.002441,2.885742,8.026733,0

-0.012207,0.265137,0.868286,-96.789551,17.534180,8.759155,0

-0.012695,0.514771,0.956909,-154.284668,0.139160,-17.302856,0

0.026611,0.283203,0.946289,-19.458008,-0.776367,-2.227173,0

0.086182,0.297363,0.954224,-32.336426,6.242676,20.599976,0

-0.002075,0.316040,0.964478,-30.993652,2.763672,8.087769,0

0.033813,0.235962,0.947632,-7.250977,-0.288086,-0.029907,0

0.026123,0.203125,0.966919,-3.771973,0.200195,0.031128,0

0.030029,0.213745,0.977905,-3.222656,0.566406,2.045288,0

0.025269,0.012451,1.000854,-0.042725,-0.007324,-0.020752,0

0.024902,0.012329,1.000366,0.018311,-0.068359,0.101318,0

0.028076,0.009155,1.003174,-0.164795,0.053711,-0.020752,0

0.030762,0.011963,1.000488,0.079346,0.053711,-0.020752,0

0.029297,0.010864,1.003662,0.018311,0.053711,-0.020752,0

0.031372,0.011230,1.003174,0.079346,0.053711,0.040283,0

0.029541,0.010986,1.003296,-0.042725,0.053711,0.040283,0

0.027954,0.011475,1.003296,-0.042725,-0.007324,0.040283,0

0.026733,0.012695,0.996704,-0.653076,0.053711,-0.020752,0

0.031006,0.008301,1.003662,0.079346,0.053711,-0.020752,0

0.030640,0.010498,1.003296,-0.042725,0.053711,0.040283,0

0.027832,0.010864,1.002075,-0.103760,-0.068359,0.040283,0

0.027588,0.008667,1.003052,-0.042725,0.053711,0.040283,0

0.027710,0.010742,1.002686,0.018311,-0.129395,-0.020752,0

0.030762,0.011230,1.002319,0.018311,0.053711,0.040283,0

0.026978,0.010986,1.001831,0.018311,-0.007324,0.040283,0

0.028687,0.010010,1.001953,-0.103760,-0.068359,0.040283,0

0.028564,0.009521,1.002197,0.018311,-0.007324,-0.081787,0

0.030518,0.011108,1.002441,-0.103760,0.114746,-0.020752,0

0.027466,0.012329,1.003052,-0.042725,0.053711,-0.020752,0

0.027710,0.010864,1.000854,-0.042725,-0.068359,-0.020752,0

0.029297,0.010986,1.001343,-0.103760,-0.007324,-0.020752,0

0.027710,0.010986,1.001465,0.018311,-0.068359,0.040283,0

0.029419,0.011108,1.002686,0.018311,-0.007324,0.040283,0

0.027832,0.008911,1.002197,-0.042725,0.053711,0.040283,0

0.029297,0.011230,1.001953,0.018311,-0.068359,-0.020752,0

0.030762,0.011597,1.004028,-0.042725,0.053711,-0.020752,0

0.027100,0.011230,1.001343,-0.042725,-0.007324,0.040283,0

0.029541,0.011108,1.003174,-0.042725,-0.007324,0.040283,0

0.028564,0.011108,1.002441,-0.164795,0.053711,0.040283,0

0.029541,0.009888,1.004028,-0.042725,-0.007324,-0.020752,0

0.031250,0.010376,1.003052,-0.103760,0.053711,0.040283,0

0.027588,0.011719,1.000366,-0.042725,-0.007324,0.040283,0

0.030884,0.010742,1.004272,-0.103760,0.053711,-0.020752,0

0.027344,0.010986,1.000610,0.018311,-0.007324,-0.081787,0

0.029175,0.010254,0.999634,0.018311,-0.007324,-0.020752,0

0.028320,0.012939,1.003418,0.018311,-0.007324,0.040283,0

0.028931,0.009644,1.001099,-0.103760,0.053711,-0.020752,0

0.029297,0.010864,1.002808,-0.042725,-0.068359,-0.020752,0

0.030151,0.010376,1.002319,-0.042725,-0.068359,-0.081787,0

0.030029,0.010864,1.003296,0.018311,-0.007324,0.040283,0

0.027466,0.010498,1.001953,0.018311,-0.007324,0.040283,0

0.031372,0.009888,1.002808,-0.103760,-0.068359,0.040283,0

0.026123,0.010864,1.003418,-0.164795,-0.068359,0.040283,0

0.026367,0.010742,0.998779,0.445557,-0.068359,-0.020752,0

0.030029,0.011108,1.002808,-0.164795,0.053711,0.101318,0

0.029175,0.010376,1.001953,0.994873,-0.068359,0.040283,0

0.026123,0.012085,1.000244,0.323486,-0.068359,0.040283,0

0.026489,0.013672,1.003052,2.459717,-0.129395,-1.424561,0

0.029419,0.011475,1.006104,1.971436,-0.251465,0.101318,0

0.016479,0.021973,1.000732,3.619385,-0.312500,-4.598389,0

0.029907,-0.005005,1.005127,3.619385,-2.570801,-3.072510,0

0.058960,0.049072,1.013184,-3.033447,-4.829102,-10.946045,0

0.026611,0.140137,1.050293,-5.718994,-2.937012,-41.585693,0

0.099976,-0.017212,0.979736,-57.110596,-3.547363,-33.895264,0

0.020874,0.004395,1.343262,-30.987549,19.096680,-31.514893,0

0.040894,-0.152832,0.875977,-76.580811,32.097168,-47.689209,0

0.056763,-0.146606,1.242554,-68.646240,7.072754,-31.026611,0

0.098022,-0.334351,0.958008,-67.303467,83.549805,-59.346924,0

-0.045166,-0.022461,1.074463,-82.684326,62.309570,-13.448486,0

-0.109741,-0.442993,0.639648,-92.327881,21.721191,-75.155029,0

0.001099,-0.155884,1.119995,-7.794189,-31.440430,-64.840088,0

0.269165,0.208496,0.842285,148.211670,-71.357422,-13.509521,0

0.171021,-0.650635,0.796997,-45.941162,-24.055176,16.947021,0

-0.011841,-0.542358,0.969116,46.405029,-10.810547,-49.825439,0

0.040039,-0.347046,1.028198,66.790771,81.291504,-56.539307,0

0.093750,-0.415161,0.913574,62.213135,57.976074,-39.632568,0

-0.146240,-0.097900,0.930298,92.547607,16.594238,-157.308350,0

0.070068,-0.459473,0.925903,109.637451,-19.111328,-51.107178,0

-0.278198,0.217163,0.868530,221.453857,-84.907227,40.018311,0

-0.083618,0.197021,0.988281,-34.954834,18.425293,46.610107,0

-0.019287,0.177979,0.591064,-76.458740,-94.489746,-79.244385,0

0.056641,0.097290,0.886963,21.929932,28.312988,-31.453857,0

0.067139,0.183350,0.958130,22.540283,-5.805664,-35.115967,0

0.047485,0.088501,0.976196,-12.554932,1.701660,9.989014,0

-0.018799,0.513550,0.819702,64.349365,11.223145,-14.364014,0

0.130615,0.473999,0.854004,38.958740,50.590820,38.248291,0

-0.114136,0.425293,0.519653,50.189209,2.373047,-32.674561,0

0.165894,0.189209,0.838135,-45.880127,74.272461,2.115479,0

-0.090454,0.468018,0.956421,105.303955,4.020996,-1.912842,0

0.237427,0.495728,0.794312,-98.675537,43.937988,-39.083252,0

-0.220459,0.229614,0.684570,-17.193604,-9.040527,11.209717,0

0.086914,0.263672,1.112427,-19.696045,-21.552734,11.209717,0

0.069580,0.189453,1.003296,7.403564,-1.899414,50.943604,0

-0.040405,0.333984,0.838745,-10.845947,-3.547363,-10.152588,0

0.122192,0.157593,0.854614,25.286865,-69.160156,-17.293701,0

-0.045898,0.384521,0.787842,-18.658447,-58.967285,-41.036377,0

0.245605,0.283081,0.877930,-36.297607,-108.527832,-126.241455,0

0.415283,0.079224,1.203491,-21.160889,-65.375977,-74.727783,0

0.489746,0.048828,1.084839,-50.518799,-66.230469,-108.785400,0

0.508423,0.038696,1.306519,-104.779053,-45.478516,-57.393799,0

0.485840,-0.203735,1.270630,-7.427979,49.003906,-3.255615,0

0.510742,-0.325317,1.486084,-25.250244,89.287109,23.233643,0

0.363403,-0.117065,1.282593,33.038330,173.454590,108.438721,0

0.239624,-0.082275,1.135742,12.164307,192.497559,117.166748,0

0.226929,-0.132935,1.042480,13.079834,188.347168,178.323975,0

0.107422,0.073730,0.736450,-7.794189,182.426758,185.709229,0

0.000122,0.109863,0.703979,-2.972412,143.852539,197.611084,0

-0.121582,0.248779,0.544800,7.952881,149.895020,171.976318,0

-0.071289,0.356445,0.492065,41.217041,150.932617,213.663330,0

-0.203003,0.569580,0.494507,49.822998,176.506348,155.557861,0

-0.011841,0.583496,0.435059,47.991943,173.759766,189.615479,0

0.129761,0.806519,-0.095703,94.317627,232.109375,199.442139,0

0.446899,0.719604,-0.043457,134.844971,232.292480,216.043701,0

0.470703,1.054321,-0.333374,43.902588,196.708984,180.032959,0

0.916992,0.906494,0.021118,70.147705,173.576660,155.802002,0

0.856323,1.228271,-0.389526,57.391357,193.229980,159.525146,0

1.173340,1.116943,0.025757,-19.879150,162.590332,91.593018,0

0.896606,1.244995,-0.412231,-33.367920,71.770020,18.228760,0

1.007446,1.253174,0.031372,-64.801025,-38.947754,-146.993408,0

0.914551,1.313232,-0.029785,-88.848877,-108.649902,-238.607178,0

0.661255,1.093018,0.200073,-78.961182,-153.693848,-293.966064,0

0.497070,1.077271,0.409424,-2.301025,-110.114746,-309.407959,0

0.204712,0.768066,0.411865,-8.465576,-101.447754,-275.045166,0

-0.014160,0.840820,0.254639,43.170166,-47.492676,-242.147217,0

-0.163208,0.607544,0.223267,-33.245850,-98.212891,-232.198486,0

-0.150391,0.424805,0.182251,23.516846,-86.066895,-221.517334,0

-0.351562,0.338135,0.303101,58.306885,-135.078125,-199.849854,0

-0.299438,0.271362,0.219727,51.531982,-117.133789,-194.295654,0

-0.484009,0.213745,0.422119,47.808838,-168.220215,-186.605225,0

-0.034302,0.144165,0.582764,108.905029,-202.766113,-239.522705,0

0.034180,0.112549,0.621948,119.342041,-204.291992,-215.230713,0

0.400757,0.160400,0.907349,174.212646,-169.013672,-189.901123,0

0.437744,0.232422,0.702637,130.755615,-119.819336,-129.903564,0

0.596558,0.612915,0.795166,255.328369,-156.867676,-110.067139,0

0.669434,0.742310,0.874146,182.269287,-107.368164,-64.229736,0

0.664062,0.927612,0.709595,180.255127,-71.418457,-49.825439,0

0.512817,1.187744,0.786377,147.540283,-63.972168,-24.678955,0

0.356934,1.185791,0.816040,151.507568,8.232422,-21.383057,0

0.192139,1.258423,0.775635,133.502197,139.763184,-42.073975,0

-0.026001,1.313110,0.929321,102.435303,207.573242,-24.801025,0

-0.264404,1.693115,0.245361,51.043701,370.903320,-88.216553,0

0.213135,1.142578,-0.074219,194.659424,365.898438,-39.815674,0

-0.106079,1.736084,-0.694336,159.442139,286.918945,-63.436279,0

0.192749,1.168213,-0.267456,111.468506,202.568359,-65.755615,0

0.162476,1.285889,-0.471191,120.013428,207.145996,-71.798096,0

0.136475,1.082764,-0.432739,172.808838,105.400391,-40.181885,0

0.246216,0.994751,-0.311401,185.809326,70.854492,-70.211182,0

0.176270,0.774780,-0.523315,159.197998,62.675781,-79.488525,0

-0.029419,0.621948,-0.598022,207.293701,12.687988,-62.032471,0

0.119751,0.538818,-0.432373,166.766357,10.979004,-105.794678,0

0.031616,0.182373,-0.539795,114.581299,22.514648,-88.277588,0

-0.032227,0.088013,-0.785034,138.995361,42.656250,-91.390381,0

0.211426,0.089844,-0.748535,108.538818,-0.800781,-104.268799,0

0.105835,-0.026123,-0.844727,109.332275,2.006836,-100.972900,0

0.157349,-0.064331,-0.859985,76.434326,-52.497559,-110.067139,0

0.126343,-0.043823,-0.847656,81.622314,-48.286133,-104.635010,0

0.259644,-0.162109,-0.763672,45.550537,-68.671875,-125.814209,0

0.298340,-0.214966,-0.834595,34.381104,-37.238770,-110.738525,0

0.327148,-0.218872,-0.934326,13.262939,-48.774414,-105.794678,0

0.367432,-0.232178,-0.819946,7.586670,-53.229980,-91.146240,0

0.308716,-0.242554,-0.867432,-2.117920,-50.239258,-72.469482,0

0.225342,-0.168091,-0.854370,-23.907471,-54.267578,-68.502197,0

0.211914,-0.264404,-0.892700,-22.137451,-40.168457,-56.539307,0

0.189575,-0.214233,-0.950195,-32.452393,-34.003906,-44.332275,0

0.221191,-0.123779,-0.846680,-30.865479,-20.942383,-31.453857,0

0.200684,0.014648,-0.948730,-55.645752,-5.378418,-10.885010,0

0.264038,0.123535,-0.857910,-47.833252,-8.918457,-17.354736,0

0.255371,0.357178,-0.649414,-65.228271,-16.425781,-13.204346,0

0.224365,0.338623,-0.674438,-79.022217,-6.110840,-34.810791,0

0.297119,0.210938,-0.697754,-104.351807,19.707031,-30.538330,0

0.273560,0.278320,-0.979004,-105.816650,22.880859,-19.979248,0

0.242676,0.405518,-1.040894,-114.605713,22.636719,18.900146,0

0.266846,0.491089,-1.025879,-120.037842,-9.711914,21.707764,0

0.247437,0.634766,-0.772461,-106.793213,-21.491699,28.726807,0

0.326660,0.708374,-0.774780,-97.760010,-21.186523,34.342041,0

0.319580,0.898804,-0.653809,-77.801514,-31.806641,32.572021,0

0.280273,1.018677,-0.820068,-207.745361,-120.856934,75.418701,0

0.129883,1.404297,-0.716187,-195.538330,-138.984375,32.205811,0

0.225098,1.297607,-0.563232,-184.185791,-151.557617,-45.247803,0

0.126587,1.448242,-0.431274,-269.512939,-245.002441,-74.056396,0

0.081909,1.320801,0.158936,-190.167236,-197.272949,-101.644287,0

0.150879,1.078125,0.294434,-153.668213,-187.873535,-163.717041,0

0.077637,1.008057,0.561035,-34.832764,-112.617188,-186.483154,0

0.159912,0.813110,0.512085,-7.183838,-108.405762,-190.511475,0

0.213623,0.770386,0.601929,4.595947,-92.536621,-184.041748,0

0.164673,0.689575,0.600952,9.295654,-108.833008,-172.384033,0

0.132812,0.607300,0.713623,92.364502,-82.770996,-167.196045,0

0.035400,0.552979,0.735474,-9.381104,-99.311523,-149.739990,0

0.035278,0.307251,0.909790,-80.792236,-78.742676,-158.773193,0

0.092896,0.319336,1.023315,-4.010010,-15.144043,-135.457764,0

-0.215332,0.213135,0.986450,-13.104248,-29.182129,-80.709229,0

-0.037842,0.082153,0.873657,-65.777588,-81.855469,-93.404541,0

0.023193,0.023804,0.903076,3.192139,-54.450684,-77.840576,0

-0.014160,-0.084595,0.752441,5.084229,-63.300781,-83.333740,0

0.103516,-0.144043,1.009766,63.983154,-56.770020,-62.032471,0

0.110107,-0.050171,0.957275,22.540283,-86.982422,-57.393799,0

0.222656,-0.040283,1.071533,24.554443,-96.564941,-49.642334,0

0.185791,0.091064,1.168945,25.225830,-50.849609,-10.885010,0

0.188110,0.010498,1.113647,24.676514,-52.497559,1.932373,0

0.205322,0.074463,1.138794,5.145264,-58.173828,16.458740,0

0.198242,0.145874,0.997681,42.987061,-34.125977,30.679932,0

0.190186,0.117065,0.931885,-10.296631,-25.214844,25.125732,0

0.308960,0.300781,0.907837,51.959229,-26.374512,28.238525,0

0.307495,0.185425,0.932861,58.062744,-21.369629,-2.889404,0

0.413452,0.347046,1.038086,33.953857,-20.393066,40.079346,0

0.311646,0.298828,0.996216,18.572998,-19.843750,44.595947,0

0.406738,0.274902,1.057617,2.764893,-6.965332,38.614502,0

0.354004,0.363281,0.925659,11.676025,11.101074,47.891846,0

0.304077,0.443970,0.919189,14.788818,17.631836,39.163818,0

0.265991,0.462891,0.799561,8.685303,18.547363,17.923584,0

0.398804,0.441895,0.834961,5.511475,-0.312500,0.101318,0

0.416016,0.429565,0.779419,1.483154,8.781738,-3.194580,0

0.410645,0.450684,0.765991,14.056396,-4.035645,0.772705,0

0.408325,0.437622,0.778931,14.239502,-0.861816,-1.973877,0

0.387451,0.438965,0.767944,13.873291,-9.956055,-11.373291,0

0.448730,0.406494,0.819702,16.986084,-20.270996,-15.828857,0

0.410767,0.416260,0.799805,15.582275,-16.791992,-12.777100,0

0.370728,0.479980,0.849121,18.267822,-22.590332,-21.627197,0

0.186279,0.546875,0.820068,-3.094482,-43.586426,-40.303955,0

0.102783,0.527466,0.831421,-29.278564,-80.939941,-79.732666,1

-0.139404,0.274658,0.768555,-33.367920,-34.187012,-52.327881,1

-0.230713,0.622070,1.387695,-34.344482,20.500488,-46.834717,1

-0.198120,0.748047,2.050781,-1.629639,62.492676,-92.794189,1

0.112183,1.476196,2.948730,-70.355225,114.128418,-92.427979,1

1.050537,1.550659,3.135620,-112.957764,138.847656,-108.541260,1

1.111206,1.143921,2.142578,-51.434326,143.303223,-60.445557,1

0.619141,0.298462,1.151489,-61.444092,170.585938,24.393311,1

0.666992,0.154663,0.960938,-37.396240,212.211914,-4.659424,1

1.182739,0.251099,0.867554,-70.111084,264.396973,-13.875732,1

1.246948,0.200562,0.669678,-3.460693,300.224609,-21.810303,1

1.143555,0.373535,0.588623,-108.746338,251.152344,-65.023193,1

1.005737,0.310303,0.270386,-19.329834,269.218750,-48.543701,1

0.683105,0.365723,0.096313,-12.371826,265.861816,-114.095459,1

0.394043,0.444214,-0.735107,34.991455,254.448242,-127.584229,1

0.539062,-0.711060,-3.275635,-110.638428,90.446777,-163.106689,1

0.556763,-1.326050,-3.997559,12.103271,32.036133,-8.931885,1

0.654663,-0.062500,-3.401489,-20.123291,-207.465820,107.523193,1

1.368042,0.303467,-0.927368,47.686768,-286.750488,113.199463,1

1.702637,0.801147,0.375244,54.522705,-355.292969,133.096924,1

2.049927,0.944336,1.359619,156.817627,-356.513672,100.931396,1

1.652466,0.514282,1.620605,97.979736,-275.703125,115.152588,1

1.333862,0.605713,1.415161,61.297607,-319.892578,133.951416,1

1.094482,0.229370,1.012451,11.492920,-312.934570,62.479248,1

0.704468,0.117432,1.131226,18.817139,-292.854004,89.578857,1

1.429688,0.473755,1.251099,63.189697,-253.730469,81.094971,1

2.015503,1.683960,2.764404,113.726807,-259.772949,125.101318,1

2.058716,1.754639,2.391968,90.350342,-122.932129,72.733154,0

1.603882,1.829834,2.231445,171.221924,-2.814941,105.997314,0

0.918457,1.591187,1.137085,122.821045,69.084473,76.090088,0

0.635864,0.563599,0.667847,101.885986,83.916016,21.829834,0

0.581177,0.340820,0.079834,-45.208740,61.638184,-1.607666,0

0.315308,0.173462,-0.012085,16.558838,43.022461,28.726807,0

0.195679,-0.019531,-0.399902,-9.381104,27.458496,-1.546631,0

0.263550,0.151489,0.059814,-4.315186,-0.373535,-4.903564,0

0.310059,0.123047,-0.023071,-48.382568,33.623047,-16.927490,0

0.427856,0.434570,0.341919,-39.166260,-25.397949,-35.543213,0

0.773560,0.977661,0.857788,-51.251221,-21.369629,-48.482666,0

1.130981,1.986450,2.176270,-18.719482,-7.697754,-91.634521,0

1.712891,1.848145,2.622925,-145.794678,4.570312,-146.566162,1

1.820557,1.544312,2.782471,-130.413818,96.489258,-64.107666,1

1.117188,0.741089,1.652344,-146.893311,161.186523,-72.713623,1

0.815918,0.220337,1.498657,-86.468506,249.321289,-52.449951,1

0.918335,0.276733,0.798462,-90.069580,281.303711,-50.679932,1

1.327148,0.267334,0.948242,-40.264893,311.760254,-64.168701,1

1.436890,0.170776,1.044189,-7.733154,318.291016,-64.107666,1

1.416626,0.357788,1.094116,-57.232666,307.426758,-92.122803,1

1.228882,0.608154,0.896973,9.417725,320.488281,-103.231201,1

0.994141,0.689575,0.537354,-28.179932,276.237793,-132.955322,1

0.536255,0.213257,-1.147095,-9.930420,265.678711,-200.765381,1

0.946167,-2.241455,-3.997559,-96.539307,114.067383,-120.504150,1

0.919434,-1.392456,-3.997559,-29.095459,-90.827637,91.287842,1

0.867065,-0.274902,-2.006592,-67.852783,-245.612793,126.077881,1

1.095093,0.686768,0.193359,-5.047607,-270.942383,152.384033,1

1.270752,0.779053,0.966431,51.837158,-299.689941,106.363525,1

1.146606,0.482300,0.691162,38.287354,-296.943359,85.611572,1

1.256714,0.353760,0.747681,30.108643,-338.630371,-9.298096,1

1.378174,0.230713,0.877808,100.421143,-277.534180,-21.810303,1

1.336060,-0.122437,1.016602,83.209229,-286.811523,0.955811,1

1.199707,0.298096,1.328125,122.576904,-212.104492,79.019775,1

1.579346,1.271240,2.186890,87.420654,-317.268066,69.559326,1

2.175781,1.467529,2.307251,167.681885,-188.666992,85.550537,1

1.962158,1.769653,2.257690,125.323486,-199.226074,120.584717,1

1.078613,1.167236,2.274170,111.224365,-59.516602,74.686279,0

0.092773,0.802490,0.768188,140.216064,45.952148,114.847412,0

0.275635,0.587891,0.605103,113.055420,85.319824,11.453857,0

0.500488,0.409424,0.006836,-40.020752,30.327148,5.106201,0

1.041870,0.441528,0.186401,-17.498779,30.998535,-16.072998,0

0.975220,0.451538,0.162354,-32.574463,21.232910,0.345459,0

0.866455,0.410156,0.249878,-8.770752,0.480957,-24.862061,0

0.899170,0.337891,0.262085,0.750732,5.668945,-9.603271,0

0.765869,0.445312,0.271606,14.849854,-1.289062,16.519775,0

0.777344,0.400024,0.377808,11.065674,-6.293945,-16.195068,0

0.789795,0.426514,0.471802,-44.049072,-13.007812,-15.828857,0

0.772705,0.321289,0.519409,9.844971,14.335938,-25.411377,0

0.466187,0.276978,0.542603,-20.001221,-2.021484,-2.889404,0

0.316772,0.114624,0.226562,17.535400,42.839355,-4.659424,0

0.646851,0.043091,0.182251,-11.517334,24.467773,-19.307861,0

0.978638,0.659180,0.529907,-20.794678,39.604492,11.820068,1

1.407837,1.705322,1.650391,-41.424561,-16.181641,-64.473877,1

1.303833,2.207642,2.349365,-92.510986,-21.430664,-82.967529,1

1.105225,1.751709,2.602051,-153.057861,19.462891,-160.482178,1

0.982178,0.716187,2.041504,-187.786865,111.259766,-115.438232,1

1.211060,0.582886,1.362793,-183.392334,244.194336,-72.225342,1

1.795044,0.510742,1.099121,-108.197021,345.329590,-35.115967,1

1.857544,0.613892,1.022583,-86.285400,368.278809,-97.249756,1

1.695679,0.747559,1.190796,-87.811279,363.579102,-71.859131,1

1.555786,0.646606,1.221191,-53.021240,354.606934,-131.917725,1

1.133667,0.773926,1.002930,-46.551514,323.540039,-128.377686,1

0.557373,0.487549,-0.177246,-14.447021,319.816895,-178.487549,1

0.913086,-0.562378,-2.386597,-91.656494,235.710449,-203.817139,1

2.202515,-2.199219,-3.997559,-29.156494,133.354492,-80.770264,1

1.609253,-0.962524,-3.026123,-32.086182,-208.442383,167.398682,1

1.415649,0.300171,-0.702148,-27.996826,-286.445312,139.932861,1

1.232056,0.958618,0.547607,-42.584229,-341.132812,210.550537,1

1.579224,0.609497,0.755249,33.465576,-338.508301,65.653076,1

1.487427,0.606934,0.838379,6.671143,-359.199219,42.764893,1

1.447876,0.541504,0.839355,81.927490,-286.140137,-30.904541,1

1.496460,0.417114,0.816895,56.597900,-342.475586,-52.510986,1

1.419067,0.025391,1.195435,98.406982,-285.773926,-40.364990,1

1.654541,0.609131,1.460938,139.300537,-296.760254,-3.560791,1

1.936523,1.287231,2.984985,136.676025,-242.622070,-37.435303,1

2.381592,1.283691,2.273071,126.605225,-171.210938,7.608643,1

1.672485,1.206909,2.339355,133.990479,-148.322754,30.985107,1

1.245850,0.747070,2.057861,149.493408,-27.778320,53.018799,0

0.498413,0.473389,1.606079,2.581787,39.055176,77.188721,0

0.446045,0.245239,0.658325,-11.944580,115.837402,55.704346,0

0.515991,0.348511,0.335938,-55.157471,100.761719,53.079834,0

0.693481,0.493164,0.178833,4.168701,107.170410,64.005127,0

1.000488,0.625732,-0.021851,-35.137939,59.257812,-2.095947,0

0.884521,0.204712,0.256470,32.611084,38.933105,-0.692139,0

0.518921,0.421509,0.428223,27.301025,6.340332,-11.312256,0

0.660034,0.142090,0.410034,49.334717,37.041016,-6.185303,0

0.696167,0.472168,0.686157,33.404541,-22.956543,23.843994,0

0.760620,0.328735,0.667603,25.958252,-5.927734,-4.232178,0

0.722412,0.298584,0.646484,14.117432,-12.092285,14.810791,0

0.677246,0.346802,0.590942,34.625244,7.072754,25.430908,0

0.588989,0.391724,0.496216,33.709717,-7.453613,28.299561,0

0.492676,0.420654,0.443604,25.653076,-15.083008,-1.973877,0

0.380737,0.409668,0.498779,-2.239990,-17.585449,-13.204346,0

0.255981,0.592896,0.486694,-29.034424,-19.233398,-30.355225,0

0.275146,1.005859,0.907715,-42.767334,-29.853516,-55.135498,1

0.756714,1.512207,2.178589,-31.658936,4.265137,-128.804932,1

1.435425,1.696045,3.046631,-101.727295,37.285156,-121.175537,1

1.821167,1.762085,3.000244,-86.956787,183.586426,-117.574463,1

1.273193,1.188110,2.182373,-109.844971,253.288574,-94.381104,1

1.043091,0.607422,1.473877,-70.294189,317.436523,-106.405029,1

1.491821,0.513916,0.997314,-91.717529,324.760742,-99.019775,1

1.497437,0.536377,1.004395,-48.443604,327.507324,-106.527100,1

1.440674,0.578613,0.897583,-104.962158,301.872559,-95.113525,1

1.122437,0.763184,0.788574,-39.593506,313.530273,-129.537354,1

1.034546,0.589478,0.401611,-126.934814,178.398438,-135.579834,1

0.486328,0.825684,-0.562988,-56.805420,231.865234,-91.817627,1

0.578247,-0.165527,-2.839111,-116.192627,88.249512,-177.449951,1

0.003296,-1.314941,-3.997559,-38.128662,-47.675781,0.772705,1

0.104126,-0.001221,-3.399902,-9.442139,-182.380371,134.744873,1

0.865723,0.626587,-1.660767,73.687744,-286.384277,112.589111,1

2.018311,1.244141,1.213013,117.083740,-375.007324,79.996338,1

2.197144,0.556763,1.038452,113.604736,-275.581055,64.798584,1

1.984009,0.459961,0.829590,98.956299,-360.725098,83.353271,1

1.741089,0.550659,1.282837,102.191162,-306.159668,11.209717,1

1.766602,-0.120117,1.029053,59.893799,-348.945312,5.350342,1

1.365723,-0.021851,1.736206,120.501709,-249.335938,62.113037,1

1.215210,0.649658,1.896973,130.633545,-179.206543,85.367432,0

1.975586,1.533691,2.570923,148.822021,-214.667969,136.026611,0

1.383179,2.372437,2.267334,149.615479,-25.275879,104.654541,0

1.606567,1.894653,2.249878,184.466553,-32.416992,89.884033,0

0.990845,1.089355,1.144531,98.529053,79.094238,41.849365,0

0.468872,0.733154,0.640015,48.358154,82.634277,43.741455,0

0.385254,0.218872,0.173706,-87.872314,66.948242,-6.612549,0

0.427856,0.116211,0.097168,-38.311768,80.192871,2.542725,0

0.449463,0.174805,0.149170,-72.613525,69.572754,25.247803,0

0.484741,0.250488,0.077393,-51.678467,63.469238,12.796631,0

0.702271,0.267700,0.284912,-32.330322,43.083496,-11.678467,0

0.843750,0.278442,0.286011,-22.076416,1.762695,-1.363525,0

1.255371,0.434204,0.814087,45.123291,-71.052246,-29.927979,0

1.037598,0.424805,0.930176,34.075928,-58.662109,-14.913330,0

0.623657,0.265137,0.676270,26.873779,-62.812500,-0.509033,0

0.333008,0.230835,0.446045,30.474854,-48.225098,19.876709,0

0.426270,0.364624,0.495972,39.508057,-43.891602,-14.730225,0

0.265991,0.704834,0.616211,-4.803467,-38.459473,-17.415771,0

0.091309,0.836914,0.973022,-57.904053,-35.285645,-58.980713,1

0.472168,1.506958,1.774048,-73.284912,-3.059082,-104.635010,1

1.493286,1.714722,2.847290,-83.966064,72.441406,-124.654541,1

2.746948,1.574097,2.677002,-137.493896,216.179199,-61.910400,1

1.829834,1.319702,2.188721,-79.632568,261.650391,-68.624268,1

1.016968,0.511719,1.596558,-86.224365,290.214844,-69.906006,1

1.526489,0.254761,1.109131,-12.005615,384.758301,-97.371826,1

1.679565,0.335815,0.942871,-85.858154,358.391113,-91.268311,1

1.859741,0.144287,0.753052,-52.777100,362.541504,-82.357178,1

1.260010,0.454956,0.333008,-56.439209,361.503906,-102.010498,1

0.926880,0.573486,-0.011841,133.441162,315.849609,-136.739502,1

0.500977,0.542603,-0.783813,82.537842,203.483887,-208.394775,1

0.783081,-1.453613,-2.347534,30.413818,89.348145,-161.580811,1

0.805176,-1.943726,-2.705811,-12.005615,-13.251953,-21.688232,1

0.616333,-1.124146,-2.145264,-115.704346,-134.650879,105.264893,1

0.606934,0.259399,-0.928467,-95.623779,-217.963867,207.193604,1

0.724854,0.623291,0.560059,-69.134521,-272.773438,164.407959,1

0.699585,0.476318,1.143433,-39.898682,-279.365234,111.368408,1

0.870850,-0.003174,0.835083,-89.886475,-374.091797,25.125732,1

1.076050,-0.082397,0.869263,65.020752,-312.324219,-6.185303,1

1.004028,-0.184814,1.027954,-8.709717,-378.181152,-6.856689,1

0.802246,-0.262695,1.462402,73.626709,-320.014648,-17.904053,1

0.873901,0.107910,1.951782,111.590576,-258.979492,109.659424,1

0.825562,1.214722,2.644653,108.172607,-177.619629,92.813721,0

1.900757,2.186157,2.967773,143.267822,-219.245605,106.241455,0

1.173828,1.965820,2.814087,217.303467,5.302734,40.018311,0

0.643433,0.795410,1.487793,-13.531494,43.388672,29.642334,0

0.388184,0.074829,0.491333,-20.855713,85.563965,13.956299,0

0.232178,0.126221,0.356812,-37.823486,92.399902,38.431396,0

0.368774,0.169678,0.264648,-74.810791,76.408691,4.007568,0

0.614502,0.206299,0.392334,-49.908447,84.770508,34.952393,0

0.739624,0.428223,0.382568,-53.936768,44.487305,-0.875244,0

0.814697,0.255493,0.753052,8.197021,2.861328,-8.260498,0

0.513428,0.172852,0.667358,-12.799072,-15.388184,-15.889893,0

0.472778,0.033325,0.598389,1.544189,-18.684082,-9.359131,0

0.390259,0.315430,0.684448,22.357178,-13.923340,11.087646,0

0.576416,0.275269,0.657227,14.666748,-29.426270,-19.368896,0

0.571289,0.224121,0.551758,26.263428,-38.886719,-10.579834,0

0.479736,0.125366,0.528076,32.427979,-13.312988,-4.598389,0

0.263916,0.231934,0.566284,30.657959,-18.500977,2.359619,0

0.224365,0.401733,0.685791,-6.085205,-16.608887,-1.973877,0

0.112549,1.101685,1.573364,34.136963,-26.496582,-53.731689,1

0.649902,1.440674,2.800781,-21.038818,37.834473,-83.150635,1

0.644897,1.803589,3.275146,-69.012451,85.197754,-95.479736,1

1.001099,1.444214,2.692993,-84.454346,173.271484,-124.044189,1

1.000122,0.737671,1.971191,-94.891357,172.539062,-106.954346,1

0.962280,0.185547,1.173340,-86.773682,206.474609,-61.177979,1

1.140259,0.030518,0.869507,-13.714600,242.119141,-27.486572,1

1.297607,-0.105103,0.871582,-26.593018,251.579590,-26.265869,1

0.936768,0.149414,0.696655,34.991455,288.139648,-25.655518,1

1.018433,0.253174,0.710938,4.656982,273.247070,-77.047119,1

0.814941,0.284424,0.415039,10.028076,246.452637,-119.161377,1

0.109863,0.246460,-0.489014,65.386963,266.777344,-152.974854,1

-0.145996,-1.059692,-2.057617,16.314697,142.265625,-175.496826,1

-0.150879,-1.873413,-3.179688,3.741455,46.989746,-29.439697,1

-0.100464,-0.984497,-2.846436,-27.813721,-58.479004,109.964600,1

0.220581,0.067993,-1.459229,-45.819092,-194.526367,136.087646,1

0.696899,0.607178,0.302612,-30.682373,-202.460938,94.339600,1

0.946533,0.355835,0.546265,-2.239990,-180.305176,90.738525,1

1.023682,0.210449,0.424927,28.521729,-195.502930,58.572998,1

0.983032,0.299316,0.515259,-14.569092,-256.904297,63.455811,1

1.357666,-0.048950,0.553101,50.616455,-255.134277,15.482178,1

0.765625,0.286011,1.140137,72.406006,-275.458984,49.539795,1

1.059448,-0.136841,1.695679,131.365967,-189.216309,105.325928,1

0.236694,1.284424,2.148682,117.633057,-229.133301,102.823486,1

1.095093,1.740845,2.588257,37.554932,-203.498535,66.507568,1

1.281128,2.291748,2.616211,129.351807,-154.182129,66.263428,0

0.760376,1.960205,2.563477,138.934326,-86.494141,117.593994,0

-0.054932,1.244141,1.580566,35.968018,37.529297,72.183838,0

-0.313721,1.139282,0.944092,-34.466553,70.122070,10.355225,0

0.302124,0.312012,0.486572,-74.322510,84.831543,-25.106201,0

0.245239,0.511353,0.322510,-56.439209,131.096191,24.454346,0

0.532227,0.391602,0.291626,-84.149170,78.911133,-39.693604,0

0.846924,0.499512,0.445435,-56.256104,92.888184,13.712158,0

0.634888,0.553223,0.581787,-18.414307,14.702148,-13.814697,0

0.560547,0.303223,0.769897,-18.414307,-4.707031,-16.378174,0

0.342651,0.164673,0.544189,-11.883545,-4.462891,12.918701,0

0.155396,0.309204,0.533203,10.638428,-5.683594,15.421143,0

0.273438,0.405640,0.604614,20.526123,-33.271484,2.298584,0

0.491333,0.445801,0.728638,20.770264,-63.972168,-8.565674,0

0.538452,0.335693,0.773804,39.508057,-62.690430,0.345459,0

0.417114,0.373535,0.698120,46.771240,-45.783691,13.468018,0

0.284058,0.346558,0.614502,27.789307,-49.689941,1.627197,0

0.258911,0.340576,0.601685,13.934326,-46.210938,-3.988037,0

-0.127930,0.831909,0.945068,-17.620850,-17.158203,-33.284912,1

0.127686,1.412964,1.859497,-29.949951,-52.619629,-55.440674,1

1.019043,1.876953,3.322021,-40.264893,20.622559,-100.484619,1

1.250244,1.950073,3.141113,-130.169678,167.717285,-72.957764,1

1.180542,1.037109,2.459229,-114.727783,174.309082,-80.709229,1

0.868164,0.427490,1.545288,-129.071045,227.043457,-62.032471,1

1.133301,0.178589,1.104614,-49.725342,278.801270,-41.219482,1

1.423340,0.196655,0.948975,-64.739990,293.693848,-44.149170,1

1.365234,0.165894,0.762329,-35.809326,295.891113,-38.533936,1

1.179443,0.305054,0.710571,-34.039307,284.538574,-77.474365,1

0.906250,0.401855,0.445801,9.478760,275.810547,-100.789795,1

0.419922,0.428101,-0.098999,34.808350,213.737793,-126.424561,1

0.168823,-0.061157,-1.668213,34.930420,181.694336,-192.891846,1

0.278076,-2.395996,-3.997559,-32.696533,-3.181152,-57.454834,1

0.525146,-0.901733,-3.165527,-20.367432,-137.214355,140.054932,1

1.231689,0.397705,-1.725708,-12.799072,-281.440430,207.987061,1

2.082275,1.148193,0.809082,39.324951,-309.150391,101.114502,1

1.712769,0.775024,1.065186,1.055908,-302.253418,105.142822,1

1.732056,0.477661,0.850708,39.263916,-326.667480,12.613525,1

2.020020,0.238403,1.033081,83.941650,-346.748047,-4.598389,1

1.919800,0.204102,1.522949,97.735596,-367.683105,3.641357,1

1.517822,0.044189,1.962402,111.651611,-272.529297,67.423096,1

1.575562,1.021729,2.093750,145.098877,-175.239258,88.480225,0

1.372070,1.986084,2.588867,163.287354,-134.223633,92.630615,0

1.554565,2.621216,2.540039,148.883057,-56.892090,79.752197,0

0.790771,1.702637,2.122803,57.147217,-29.548340,4.373779,0

0.604126,0.787354,1.325073,13.812256,92.094727,-37.923584,0

0.567749,0.329468,0.733765,-95.806885,78.666992,-5.086670,0

0.533691,0.178345,0.325562,-55.828857,144.035645,20.548096,0

0.541870,0.300781,0.182983,-64.190674,142.021484,33.121338,0

0.716797,0.255127,0.054077,-44.964600,121.635742,19.266357,0

0.775269,0.441772,0.281494,-50.213623,53.886719,16.397705,0

0.794800,0.293335,0.431396,0.323486,-8.247070,-8.687744,0

0.654541,0.220581,0.639526,6.976318,-27.656250,2.176514,0

0.374756,0.258057,0.515259,27.667236,-25.336914,8.646240,0

0.486206,0.251465,0.725342,17.413330,-57.197266,5.838623,0

0.555054,0.362183,0.686646,48.602295,-22.102051,30.557861,0

0.513428,0.471069,0.709839,47.137451,-40.900879,10.111084,0

0.535156,0.512695,0.675659,61.907959,-28.083496,19.754639,0

0.420776,0.467407,0.706055,61.419678,-20.270996,-0.692139,0

0.162354,0.445190,0.621948,19.854736,-3.669434,15.421143,0

0.355957,0.640259,0.576660,-17.315674,-4.096680,-29.012451,0

0.015625,0.976562,0.929565,-34.344482,-22.102051,-36.275635,1

0.117554,2.297852,2.488525,-49.481201,-73.676758,-127.584229,1

1.086304,2.624634,3.709839,-80.181885,21.110840,-159.261475,1

1.687866,2.061279,3.238281,-152.996826,171.074219,-112.325439,1

1.269775,0.996582,2.030396,-138.897705,245.659180,-128.377686,1

1.805664,0.373291,1.489136,-83.111572,315.361328,-91.817627,1

2.005493,0.581299,1.265259,-32.452393,348.076172,-111.959229,1

1.945435,0.468018,0.907227,-44.110107,352.531738,-121.785889,1

1.598389,0.651123,0.783203,13.873291,343.193359,-158.834229,1

1.380249,0.715332,0.737427,-3.094482,286.918945,-191.671143,1

1.208130,0.372925,-0.286621,4.718018,211.967773,-199.666748,1

0.940063,-0.778809,-2.707520,-50.946045,82.390137,-178.182373,1

0.881836,-2.096191,-3.969604,-37.945557,-46.943359,-89.864502,1

0.338257,-1.650635,-2.829224,-23.114014,-172.919922,98.306885,1

0.311646,0.142212,-1.307617,-62.481689,-222.480469,224.222412,1

1.154053,0.645020,-0.068848,28.338623,-198.615723,127.237549,1

1.588257,0.769409,1.406982,82.598877,-305.000000,179.117432,1

1.276611,0.524048,1.225098,54.705811,-258.002930,129.862061,1

1.163452,0.345459,0.797729,32.244873,-296.455078,96.658936,1

1.093872,0.310059,0.949219,47.625732,-328.681641,21.463623,1

0.989502,0.061890,1.817139,36.761475,-221.137695,44.107666,0

0.553711,0.170410,1.398682,38.714600,-222.907715,35.318604,0

1.474976,0.640503,2.923828,90.777588,-226.936035,62.357178,0

0.996582,1.819946,2.170410,85.650635,-64.582520,66.141357,0

1.079956,1.741211,2.579712,142.535400,-69.953613,23.111572,0

0.176025,1.192749,1.914185,79.302979,73.906250,92.935791,0

0.333740,0.413330,0.698730,17.657471,107.048340,74.136963,0

0.005981,0.604004,0.352417,-26.776123,96.245117,75.296631,0

0.512695,0.049805,0.353882,-22.259521,44.365234,5.045166,0

0.296265,0.624512,0.390747,-71.087646,53.703613,14.871826,0

0.728394,0.324219,0.582886,-7.427979,-5.134277,-33.956299,0

0.614502,0.411499,0.903076,-15.301514,-5.561523,-3.743896,0

0.491577,0.371826,0.791260,6.549072,5.607910,5.289307,0

0.411499,0.363403,0.739014,-3.277588,1.823730,9.866943,0

0.460693,0.374878,0.789307,14.300537,-2.875977,-10.152588,0

0.515991,0.308105,0.809692,0.445557,-5.866699,-3.438721,0

0.489868,0.344482,0.778442,26.141357,4.814453,5.289307,0

0.429077,0.433350,0.859009,1.605225,-10.261230,-3.072510,0

0.442993,0.353271,0.755005,11.370850,0.786133,-10.457764,0

0.537109,0.307373,0.789429,4.351807,-2.692871,-3.377686,0

0.485596,0.376343,0.769775,17.169189,4.020996,1.627197,0

0.474854,0.392944,0.767090,7.647705,-8.552246,1.199951,0

0.473267,0.383667,0.694824,9.661865,-5.744629,0.711670,0

0.401245,0.403198,0.715576,12.835693,-5.256348,-3.927002,0

0.298706,0.441162,0.739380,4.534912,1.152344,-2.034912,0

0.259033,0.561279,0.678223,-10.479736,-4.157715,-30.843506,0

0.315918,0.562744,1.001709,-24.822998,4.448242,-17.476807,0

0.209839,0.653931,0.730713,-34.527588,31.547852,-44.881592,0

-0.157837,1.881958,2.286499,-28.302002,-62.507324,-77.718506,0

0.656372,1.967285,3.372803,-54.852295,-0.251465,-142.843018,0

1.203491,1.782715,3.098022,-113.385010,166.679688,-139.852295,0

1.060913,0.231934,1.357178,-77.313232,226.738281,-86.812744,0

1.732788,-0.003906,0.896606,-86.285400,256.218262,-72.591553,0

1.506104,-0.159912,-0.027954,-87.933350,310.600586,-54.769287,0

0.821533,0.037598,-0.448364,-104.779053,195.732422,-35.054932,0

0.545166,0.174927,-0.957642,-37.823486,113.029785,-80.892334,0

0.333618,0.013916,-1.058105,-31.231689,47.661133,5.716553,0

-0.087402,-0.178833,-0.748169,-13.165283,-55.244141,1.993408,0

-1.017456,-0.114380,0.204834,-27.691650,-154.792480,33.121338,0

-1.158447,-0.029175,1.265015,12.896729,-153.205566,40.750732,0

-0.656006,0.306274,1.170288,-3.887939,-116.462402,23.660889,0

0.000366,0.169556,1.393311,81.561279,-150.397949,52.042236,0

0.553101,0.099487,1.315796,87.908936,-99.921875,23.721924,0

0.326050,-0.129883,0.729858,-41.241455,-130.927734,40.872803,0

0.011353,0.074463,0.903809,-15.545654,-99.677734,33.731689,0

-0.276855,-0.111206,0.589478,-67.120361,-99.860840,24.210205,0

-0.344116,-0.278320,1.059448,-20.916748,-16.730957,21.097412,0

-0.275024,0.234009,1.780273,10.516357,-45.417480,34.219971,0

0.209717,0.231323,2.197021,22.784424,-17.280273,37.088623,0

-0.039062,0.146851,1.537720,10.638428,-17.951660,31.351318,0

-0.036743,0.135742,1.258545,21.502686,-19.111328,43.192139,0

0.017822,0.079102,1.060791,-7.916260,-9.284668,14.932861,0

0.013672,0.014160,0.615112,-7.794189,27.397461,23.294678,0

0.088257,-0.013794,0.662231,1.666260,9.392090,5.411377,0

0.148682,0.127441,0.992188,10.943604,3.654785,5.777588,0

0.273682,-0.056396,1.176270,2.703857,-11.054688,1.383057,0

0.036865,0.039917,1.001465,-5.474854,0.786133,14.871826,0

0.078979,0.036133,0.986816,0.628662,-0.861816,10.233154,0

0.039551,0.082642,0.914551,3.863525,6.218262,7.730713,0

0.087402,0.023315,0.960571,3.619385,-9.406738,-3.560791,0

0.217163,-0.046997,1.031128,13.018799,-7.026367,-2.279053,0

0.066406,0.031494,1.147705,10.394287,-9.833984,21.951904,0

-0.207642,0.070312,1.266846,6.610107,22.331543,9.622803,0

-0.577026,0.142212,1.298584,-27.325439,64.812012,5.533447,0

-0.076416,-0.060425,1.523926,-23.907471,89.470215,-18.941650,0

-0.151001,-0.341187,1.386475,-33.245850,150.261230,32.510986,0

-0.340088,-0.436768,1.190674,-12.677002,95.634766,17.191162,0

-0.348877,-0.219604,0.723633,-55.950928,-30.830078,35.989990,0

-0.339478,-0.246460,0.239258,52.081299,7.561035,-28.585205,0

0.025513,0.264771,0.365112,23.150635,-120.612793,29.581299,0

0.584473,0.290894,0.604492,81.622314,-4.523926,-45.858154,0

0.748779,0.279175,0.971680,39.874268,-32.600098,12.796631,0

0.217651,0.368408,0.779907,12.347412,45.524902,24.637451,0

0.351929,0.686035,0.750610,-21.893311,56.999512,24.332275,0

0.246948,0.767578,0.896973,2.093506,67.009277,64.371338,0

0.098999,0.535645,1.088379,-56.439209,-19.599609,69.254150,0

-0.146729,0.580322,1.108521,4.656982,-87.897949,74.136963,0

-0.046143,0.273560,1.286255,-22.564697,-162.666016,9.134521,0

0.258911,-0.153198,1.099609,-35.870361,-174.628906,-68.441162,0

0.012939,-0.410889,0.824829,-31.475830,-91.926270,-36.092529,0

-0.250977,-0.480591,0.654785,-4.925537,-34.125977,-95.723877,0

-0.154907,-0.525269,0.909058,-21.466064,11.223145,-42.318115,0

-0.124512,-0.468872,0.829956,-60.772705,60.295410,-13.387451,0

0.068726,-0.139771,1.098999,14.849854,24.650879,38.309326,0

0.503296,0.122437,1.556763,16.131592,-31.684570,8.524170,0

0.383179,0.101685,1.615967,5.755615,-28.510742,19.022217,0

0.256348,0.047729,1.067383,-9.259033,-17.463379,2.176514,0

0.256958,0.059326,0.880981,8.380127,-10.871582,29.337158,0

0.239380,0.095215,0.714722,7.952881,3.105469,22.012939,0

0.282471,0.133911,0.697510,15.521240,19.279785,28.787842,0

0.276123,0.127686,0.745239,12.957764,1.457520,-1.729736,0

0.259521,0.180420,0.951294,18.634033,4.143066,-9.847412,0

0.356812,0.141846,1.116455,14.361572,-19.538574,-35.054932,0

0.285767,0.157837,1.197144,7.708740,-6.965332,-25.594482,0

0.364868,0.006226,1.023804,6.854248,-6.354980,-29.989014,0

0.389404,-0.162109,1.016235,26.507568,38.261719,5.960693,0

0.369751,-0.452271,0.976562,-23.297119,40.886230,31.290283,0

0.198120,-0.370850,1.033936,-27.691650,83.671875,87.198486,0

-0.052856,-0.614990,1.509644,-39.288330,80.925293,110.147705,0

-0.311768,-0.507690,2.015381,-45.635986,132.866211,181.375732,0

-0.414307,-0.576294,1.755127,-25.494385,86.479492,150.308838,0

-0.735352,-0.084229,0.601562,-13.531494,12.626953,131.571045,0

0.026855,0.304077,0.228516,-8.343506,-63.544922,45.938721,0

0.347168,0.686646,-0.061523,22.235107,-87.592773,30.496826,0

1.009033,0.692017,0.191284,112.750244,-68.793945,-56.417236,0

1.342529,0.265503,1.378052,50.433350,-39.619141,-80.770264,0

0.573730,0.505737,0.050537,-23.663330,116.936035,45.572510,0

0.620117,0.718872,0.928711,74.542236,92.949219,-14.913330,0

0.966187,1.216797,1.276855,21.746826,97.099609,39.346924,0

0.487671,0.608032,1.062134,-69.561768,21.660156,102.640381,0

0.049194,0.563721,1.069946,-34.649658,-48.225098,57.413330,0

-0.035522,0.060669,0.896729,-129.071045,-188.422852,-21.199951,0

0.275391,-0.220703,1.057495,15.765381,-93.208008,-68.319092,0

0.058105,-0.198486,0.831421,-85.125732,-134.895020,-83.883057,0

0.054077,-0.505249,0.990967,16.070557,-18.073730,-84.188232,0

-0.483887,-0.508911,0.826416,-25.616455,-36.201172,-128.011475,0

-0.544800,-0.547119,0.879761,14.788818,48.820801,-67.159424,0

-0.303467,-0.448853,1.160645,22.418213,47.111816,-48.299561,0

0.201782,0.097168,2.120117,38.836670,5.363770,35.562744,0

0.505737,0.413818,1.690552,-34.344482,10.979004,-4.110107,0

0.099976,0.104004,0.883545,-31.353760,38.444824,-5.574951,0

0.146729,-0.048218,0.819824,-43.743896,19.401855,-19.429932,0

0.207520,-0.032837,0.619019,-27.142334,20.927734,26.407471,0

0.298096,0.086426,0.709961,-12.554932,11.162109,3.702393,0

0.115723,0.072388,0.900269,21.807861,-10.749512,20.731201,0

0.276001,0.102173,1.350464,32.244873,-40.229492,-30.416260,0

0.135376,0.212646,0.986450,-24.822998,-5.012207,-3.682861,0

0.048340,0.250122,0.864014,-8.099365,-1.716309,-38.472900,0

0.148315,0.132446,0.947510,5.633545,-12.153320,-35.970459,0

0.183228,0.144897,1.108765,-12.066650,-8.247070,-69.173584,0

0.020142,0.079590,0.887939,-19.757080,4.509277,-61.727295,0

-0.203003,0.171265,0.726074,-10.784912,29.899902,-79.183350,0

-0.184937,0.020508,0.671753,-33.673096,15.251465,-80.953369,0

-0.051636,0.025757,1.224487,-43.927002,-7.819824,-103.597412,0

0.593384,-0.559814,2.265625,5.633545,10.246582,-155.294189,0

1.483643,-1.039429,1.935303,-150.494385,87.395020,-134.114990,0

1.659668,-1.852539,0.628662,-120.587158,54.680176,-15.706787,0

1.671387,-1.018555,0.790649,43.780518,-60.249023,181.253662,0

1.582886,-0.009155,0.630737,-7.611084,-76.545410,361.734619,0

1.514160,0.564331,0.038452,52.264404,-19.233398,383.402100,0

1.668335,0.748779,-0.360352,79.180908,-32.966309,422.037354,0

1.241211,0.853882,-0.256470,53.546143,-47.370605,339.334717,0

1.351929,0.641846,0.105957,123.309326,-35.346680,269.022217,0

1.062866,0.757690,0.750366,66.851807,-34.187012,283.487549,0

1.441650,1.280396,1.781250,97.735596,-40.290527,190.103760,0

1.366211,2.930664,3.164185,13.812256,-51.765137,146.585693,0

1.219360,2.265015,2.137207,-84.881592,34.904785,-38.045654,0

0.856934,1.427490,1.223511,-74.017334,10.002441,-161.336670,0

0.853760,0.768066,0.879883,-107.220459,34.477539,-200.277100,0

1.185791,0.596313,0.440430,-129.193115,132.805176,-244.649658,0

1.657593,0.313965,-0.042847,-159.161377,179.375000,-325.643311,0

1.534912,0.213135,-0.103149,-86.651611,209.343262,-288.350830,0

1.354004,0.048096,-0.073120,-7.366943,209.038086,-316.243896,0

0.924561,-0.181030,0.124756,58.673096,187.858887,-284.688721,0

0.704834,-0.390991,0.081665,-26.776123,69.816895,-292.562256,0

1.100952,-0.779785,0.778076,117.327881,25.383301,-291.585693,0

1.671265,-1.327759,0.761597,42.803955,-80.085449,-273.031006,0

1.750977,-1.146606,1.251587,103.533936,-94.062500,-193.441162,0

1.293091,-0.898193,1.622437,76.068115,-83.869629,-138.753662,0

0.739624,-0.871582,1.229126,44.940186,17.387695,-19.063721,0

0.587280,-0.590942,1.003906,-7.427979,13.542480,27.506104,0

0.663330,-0.320068,0.850708,-14.263916,58.586426,70.047607,0

0.662354,-0.253174,0.766724,6.427002,45.341797,61.746826,0

0.544067,-0.245728,0.871948,46.221924,56.022949,81.705322,0

0.567993,-0.349121,0.531738,52.569580,69.572754,102.335205,0

0.277954,0.077637,0.727417,88.763428,35.576172,149.759521,0

0.516968,-0.054932,0.702271,127.581787,51.872559,98.673096,0

0.397339,0.081909,0.435425,79.852295,19.707031,189.249268,0

0.161987,0.348877,0.523804,84.918213,-39.741211,134.683838,0

0.218506,0.243896,0.475830,80.706787,-52.436523,116.129150,0

0.070068,0.644043,0.579468,56.903076,-95.039062,76.151123,0

0.346802,0.322144,0.515747,-11.517334,-133.063965,-36.153564,0

0.338135,0.432983,0.645020,-26.531982,-127.509766,-47.017822,0

0.608276,0.873535,1.097412,-20.306396,-151.496582,-77.108154,0

0.678101,1.771606,2.874756,19.610596,-95.710449,-123.983154,0

1.549194,1.958008,3.999512,-74.627686,-9.528809,-96.456299,1

2.087158,1.230591,3.277832,-137.371826,213.066406,-41.707764,1

1.602905,0.505127,1.937988,-110.150146,309.318848,1.810303,1

1.455078,0.052002,0.862427,-129.010010,300.651855,33.121338,1

1.495605,-0.214600,0.383057,-1.873779,344.353027,40.872803,1

1.403687,-0.356079,0.451904,28.399658,304.924316,21.646729,1

1.117920,-0.179443,0.470459,54.217529,340.019531,5.472412,1

0.652344,-0.128418,0.209351,50.616455,281.853027,-39.449463,1

0.089600,0.140625,-0.031860,160.540771,230.339355,-68.197021,1

-0.011719,0.385986,-1.243164,46.099854,127.556152,-89.620361,1

-0.805786,-0.087524,-3.720215,-41.363525,-38.459473,-17.110596,1

-0.006836,-0.263062,-3.051636,-39.837646,-174.567871,30.313721,1

1.142212,0.434082,-0.615845,-31.597900,-239.631348,105.142822,1

1.402832,0.395020,0.581543,-20.001221,-260.200195,65.897217,1

1.700439,-0.270752,0.992432,-28.302002,-310.615234,14.200439,1

1.698853,-0.604614,1.210571,-68.585205,-321.845703,-18.575439,1

1.341309,-0.475952,1.051270,-3.277588,-285.102539,-24.495850,1

0.838501,-0.493408,1.017456,-30.194092,-307.502441,-34.505615,1

1.009277,-0.446899,2.022461,106.402588,-255.134277,-33.773193,0

1.144897,0.264526,2.333496,35.906982,-247.932129,76.761475,0

1.635376,1.562012,2.756714,155.352783,-90.522461,-40.731201,0

1.575439,1.580200,2.306763,121.844482,-105.415039,7.547607,0

1.032349,1.005615,2.093140,133.624268,-16.364746,-38.228760,0

0.511475,0.547607,0.898804,-38.311768,82.084961,44.168701,0

0.312866,0.150635,0.220947,-17.742920,123.222656,-0.264893,0

0.188965,0.287109,-0.037842,-28.729248,89.409180,36.783447,0

0.418335,-0.047485,-0.151978,-18.780518,40.825195,-32.308350,0

0.391724,0.205688,0.021729,4.290771,23.002930,14.261475,0

0.096313,0.825562,0.599243,3.680420,-31.989746,-44.454346,0

0.261475,1.494019,2.214600,-57.781982,-84.357910,-88.948975,1

1.735596,1.977661,3.999512,-13.226318,23.552246,-80.709229,1

1.857178,1.462891,2.813354,-145.489502,226.433105,-45.064697,1

1.262207,0.462524,2.071777,-81.097412,263.542480,-51.046143,1

0.907593,-0.005737,0.744995,-85.186768,323.601074,-17.781982,1

1.249146,-0.088501,0.742554,-40.142822,308.220215,-59.652100,1

1.291992,-0.123779,0.767578,-7.916260,329.887695,-40.609131,1

1.183960,-0.024292,0.415527,-73.529053,300.773926,-28.157959,1

0.776733,0.169922,0.564697,61.663818,295.585938,-87.484131,1

0.454956,0.211792,-0.317017,14.117432,224.052734,-85.347900,1

-0.359253,0.082031,-1.847778,-4.681396,111.198730,-134.969482,1

-0.527222,-0.556396,-3.536499,-17.010498,-34.675293,-13.509521,1

-0.454224,-0.256348,-2.751831,-45.574951,-163.459473,49.539795,1

0.793823,0.324585,-0.511108,-49.114990,-206.062012,131.510010,1

0.959229,0.269775,0.216431,23.638916,-203.315430,104.166260,1

1.165039,-0.048462,0.715210,-16.156006,-280.280762,43.863525,1

1.432129,-0.282959,0.888428,28.399658,-322.089844,-14.180908,1

1.264526,-0.110962,1.351807,30.169678,-313.117676,-43.599854,1

0.845337,-0.191406,1.075684,-10.418701,-291.389160,-40.792236,1

0.577271,-0.490723,1.455933,11.798096,-272.834473,-112.630615,1

0.404053,0.069824,1.876099,56.964111,-157.355957,-18.697510,1

0.824707,0.639160,3.140381,182.025146,-105.292969,4.984131,1

0.875122,2.161133,2.743408,100.360107,-53.229980,-1.973877,1

1.237427,1.727661,3.999512,1.361084,-114.326172,-30.965576,1

-0.111816,1.040039,2.633545,-73.040771,47.600098,-34.810791,1

-0.054565,0.209351,1.980225,-146.710205,132.377930,-4.598389,1

1.069824,0.671631,2.227295,-140.850830,246.635742,27.750244,1

1.664062,0.652466,1.219482,-105.511475,382.805176,60.831299,1

2.008057,0.354492,0.935913,-95.928955,397.331543,0.955811,1

1.407837,-0.077881,0.432129,-54.180908,392.631836,22.073975,1

0.693115,0.110962,0.557373,3.314209,320.427246,-46.041260,1

0.138794,0.141602,-0.249634,-4.986572,211.784668,-16.927490,1

-0.282715,0.219971,-1.470703,2.947998,94.536133,-110.921631,1

-0.355469,-0.108276,-2.777832,-65.289307,5.913086,-2.218018,1

-0.015137,0.092285,-1.636963,-6.573486,-85.822754,65.714111,1

0.184814,0.200439,-0.666870,-22.076416,-154.975586,121.439209,1

0.886963,-0.013672,0.364502,83.392334,-223.273926,70.352783,1

0.824829,-0.017578,0.915649,-24.090576,-260.627441,36.722412,1

0.852417,-0.122925,0.819336,37.615967,-205.817871,26.224365,1

0.572144,0.066895,0.744873,-75.115967,-277.106934,-48.970947,1

0.727417,-0.383179,0.912476,60.931396,-213.874512,-64.840088,1

0.365601,-0.226318,1.667847,69.415283,-247.504883,-42.501221,1

0.320923,0.643677,1.995361,92.425537,-117.988281,100.321045,1

0.149902,2.576904,3.726074,135.150146,-216.132812,36.356201,1

0.179199,2.249023,3.999512,147.845459,-98.457031,-15.401611,1

-0.100586,1.234741,3.029541,-33.489990,-56.159668,-58.980713,1

-0.277710,0.298828,1.795288,-76.702881,107.963867,-2.218018,1

0.332886,0.693115,1.639404,-50.274658,220.512695,-4.842529,1

1.071289,0.786987,1.531250,-109.417725,292.778320,3.946533,1

1.455933,0.723633,1.364136,-69.561768,378.898926,-31.148682,1

1.521240,0.216064,0.866455,-57.171631,414.848633,-36.458740,1

1.043945,0.037842,1.073975,8.074951,364.006348,-101.156006,1

0.232178,-0.138184,0.529663,85.040283,318.779297,-57.332764,1

-0.519653,0.553345,-1.110107,26.019287,198.845215,-73.323975,1

0.164673,-0.343872,-2.841919,-22.869873,87.700195,-107.503662,1

0.378784,-0.503784,-3.371460,-77.435303,-74.531250,43.070068,1

0.845337,0.050537,-0.641724,-15.606689,-187.507324,116.617432,1

0.956543,0.283936,0.752563,-11.578369,-203.986816,100.687256,1

0.872559,-0.050415,0.638916,-36.114502,-211.555176,76.029053,1

0.730957,-0.003052,0.721802,-15.667725,-256.721191,31.778564,1

0.864746,-0.351196,1.096802,-24.029541,-260.200195,-9.114990,1

0.318970,0.000854,1.037109,3.619385,-234.199219,-10.091553,1

0.226929,-0.307129,1.107422,-55.828857,-261.848145,-61.422119,1

-0.084229,-0.095337,1.657349,38.775635,-206.123047,-18.636475,1

-0.421265,1.060913,3.582275,191.790771,-152.656250,32.877197,1

-0.906982,2.709717,3.999512,121.783447,-121.955566,9.195557,1

-0.146851,1.556519,3.545410,42.620850,-99.006348,-55.745850,1

-0.519165,0.537964,2.438599,-41.790771,79.155273,-23.397217,1

-0.051880,0.358765,1.419189,-90.435791,171.928711,-5.086670,1

0.699097,0.543335,1.337646,-65.960693,248.405762,7.486572,1

1.201294,0.658569,1.344849,-90.008545,275.322266,-34.627686,1

1.141479,0.484985,1.030762,-50.640869,347.587891,-37.801514,1

1.110229,0.272217,0.978027,-52.410889,342.766113,-108.968506,1

0.204834,0.137451,0.625244,130.206299,386.284180,-122.335205,1

0.169189,-0.007202,-0.784302,86.138916,295.097656,-82.967529,1

0.272339,-0.822144,-2.039551,36.334229,144.768066,-150.716553,1

0.636353,-1.464233,-3.180542,-99.713135,-6.782227,44.351807,1

0.609009,-0.068604,-1.110962,-98.736572,-173.591309,171.427002,1

0.551880,0.172363,-0.307739,-97.760010,-231.757812,146.951904,1

0.970337,0.314331,0.581177,-42.950439,-284.736328,117.410889,1

0.953735,0.059082,0.801514,-67.425537,-284.248047,21.524658,1

0.793213,0.070679,0.383667,-26.287842,-253.120117,-7.772217,1

0.913330,0.089722,0.871948,12.774658,-286.811523,-52.999268,1

0.741699,-0.215454,1.271729,83.148193,-208.808594,-41.158447,1

0.342041,0.403931,1.831543,15.338135,-216.560059,39.652100,1

0.112427,0.525146,2.221313,145.220947,-123.786621,22.867432,1

0.698853,2.300781,3.567627,162.005615,-211.982422,109.964600,1

0.496338,2.505615,2.607422,179.888916,-83.198242,85.367432,1

0.528076,1.149658,2.479736,50.860596,-81.611328,51.981201,1

-0.315796,0.490356,1.115356,-5.657959,86.174316,64.249268,0

0.109619,0.033936,0.425903,-20.672607,97.832031,82.010498,0

-0.129639,0.445435,0.281616,-35.809326,137.810059,61.990967,0

0.348145,0.087524,0.433716,-89.215088,99.052734,-7.467041,0

0.446167,0.184448,0.489624,-66.143799,149.467773,47.037354,0

0.256348,0.601440,0.751587,-41.302490,164.299316,26.651611,0

0.279907,0.387817,0.854126,-53.570557,122.673340,-10.335693,0

0.156860,0.369995,1.145142,-34.100342,51.140137,-23.214111,0

0.011597,0.224121,1.209961,-4.864502,-40.961914,-31.636963,0

-0.186401,0.421265,1.226074,44.635010,-68.305664,37.698975,0

-0.078247,0.318604,1.021729,19.244385,-49.689941,-7.222900,0

0.063965,0.236816,1.073730,33.953857,-44.929199,-4.415283,0

-0.026245,0.220703,0.757080,-9.197998,12.687988,36.295166,0

-0.141235,0.287964,0.650513,-19.696045,29.289551,18.167725,0

-0.052246,0.290405,0.810181,-14.752197,11.284180,6.510010,0

-0.032471,0.392944,1.145508,-18.475342,29.106445,-22.786865,0

-0.098633,0.306274,1.227783,-26.409912,13.237305,-27.974854,0

-0.037231,0.210571,1.489502,22.418213,-3.425293,-33.590088,0

-0.109741,0.213135,1.363525,-10.662842,28.190918,1.810303,0

-0.235474,0.145264,0.952759,-32.696533,69.328613,13.773193,0

-0.169556,0.074951,0.706543,-15.057373,68.901367,6.082764,0

-0.119385,0.061157,0.786621,-0.775146,43.876953,4.678955,0

-0.164062,0.051270,0.738647,2.398682,64.018555,0.101318,0

-0.241455,0.088867,0.861450,22.784424,14.152832,-12.471924,0

-0.228394,0.118774,0.819214,-5.963135,23.491211,20.548096,0

-0.391235,0.301392,0.732910,4.962158,33.684082,19.998779,0

-0.401245,0.260376,0.818481,1.788330,11.650391,6.265869,0

-0.615601,0.378906,0.936401,-7.305908,5.852051,-1.912842,0

-0.602173,0.358887,0.964844,-6.268311,25.444336,-0.814209,0

-0.568481,0.328125,0.867798,-15.118408,47.661133,-14.058838,0

-0.499390,0.202515,0.599365,-38.067627,48.149414,-23.580322,0

-0.511841,0.130493,0.357666,-27.874756,43.205566,-14.852295,0

-0.474609,0.082764,0.352661,-35.015869,7.072754,5.106201,0

-0.392700,0.132446,0.406616,-35.748291,-12.275391,10.904541,0

-0.274658,-0.026123,0.401245,-17.193604,-25.092773,15.360107,0

-0.223755,-0.088257,0.384521,-31.170654,-25.520020,28.848877,0

-0.165894,-0.004883,0.628540,0.567627,-85.029297,18.411865,0

-0.068848,-0.039307,0.675171,7.464600,-83.808594,22.440186,0

0.033813,0.095215,0.891479,59.649658,-74.470215,-0.447998,0

0.082397,0.486572,1.024536,73.992920,-81.367188,30.435791,0

0.084229,0.385010,1.197998,11.676025,-132.331543,6.571045,0

0.219238,0.317017,1.528320,34.075928,-78.742676,21.524658,0

0.118652,0.313354,1.096191,91.937256,65.483398,40.079346,0

0.001831,0.629395,1.383057,163.714600,76.835938,29.947510,0

0.084473,0.713745,0.884033,19.183350,-42.487793,37.882080,0

0.068726,0.418213,1.329590,-64.068604,-56.342773,14.200439,0

0.039917,0.576050,1.010376,24.981689,11.345215,39.102783,0

0.241333,0.525635,1.409668,-44.415283,26.054688,26.956787,0

-0.021118,0.511841,0.854492,46.771240,36.369629,5.838623,0

-0.027222,0.494995,0.961304,5.389404,57.731934,13.834229,0

-0.071655,0.503540,0.864990,24.249268,15.556641,15.177002,0

-0.016357,0.577637,0.823853,-9.991455,47.294922,12.003174,0

-0.108643,0.467041,0.823486,-42.095947,87.822266,28.543701,0

-0.093872,0.508789,0.896362,22.235107,21.538086,17.374268,0

-0.117554,0.500854,0.812744,-39.044189,-21.003418,19.205322,0

-0.101807,0.187622,1.320312,-103.863525,-6.782227,-3.682861,0

-0.125366,0.330444,0.943604,-29.095459,4.326172,-0.264893,0

0.028809,0.005005,0.997070,0.020142,0.062866,0.009155,0

0.027466,0.006104,1.000977,-0.040894,0.001831,0.009155,0

0.023926,0.006348,1.007690,0.142212,-0.120239,0.070190,0

0.029785,0.006592,1.008667,0.020142,0.062866,0.070190,0

0.030396,0.005737,1.006592,-0.040894,0.429077,-0.051880,0

0.031250,0.005737,1.005615,-0.040894,0.184937,0.009155,0

0.028931,0.008301,1.006104,0.020142,0.001831,0.009155,0

0.028320,0.006348,1.002808,0.020142,-0.059204,-0.051880,0

0.027710,0.006226,1.000732,-0.101929,0.001831,0.009155,0

0.025757,0.006104,1.002075,-0.101929,0.001831,-0.051880,0

0.024780,0.007324,0.998169,0.020142,-0.059204,0.009155,0

0.023926,0.007324,0.999756,-0.040894,0.062866,-0.051880,0

0.026001,0.004150,0.997925,0.020142,-0.059204,0.009155,0

0.027832,0.005005,1.002930,-0.040894,-0.059204,0.070190,0

0.030029,0.006470,1.003296,-0.101929,0.001831,0.009155,0

0.028442,0.006958,1.001343,0.020142,0.001831,0.070190,0

0.025024,0.006958,1.002197,0.020142,-0.059204,-0.051880,0

0.028931,0.005371,1.002686,0.020142,0.001831,0.070190,0

0.026367,0.006470,1.001099,-0.040894,0.001831,0.009155,0

0.029541,0.004272,1.002808,0.020142,-0.059204,0.009155,0

0.029175,0.005981,1.002686,0.020142,-0.120239,0.070190,0

0.027100,0.006226,1.002197,-0.040894,-0.120239,-0.051880,0

0.027954,0.004639,1.001587,-0.101929,0.001831,-0.051880,0

0.027344,0.006104,1.002197,-0.040894,0.062866,0.009155,0

0.029053,0.007568,1.003540,-0.101929,0.245972,-0.051880,0

0.030273,0.005981,1.002930,-0.101929,0.245972,-0.173950,0

0.028931,0.005371,0.999878,-0.101929,-0.059204,0.070190,0

0.026611,0.006348,1.001831,0.020142,0.123901,0.070190,0

0.028198,0.005981,1.005005,0.020142,-0.059204,-0.112915,0

0.030640,0.006714,1.003418,0.020142,0.001831,-0.051880,0

0.026245,0.004761,1.000000,0.020142,-0.120239,-0.051880,0

0.029297,0.005981,1.002930,0.020142,0.123901,-0.112915,0

0.024048,0.006348,1.002686,-0.101929,0.001831,0.009155,0

0.028564,0.006470,1.002075,0.020142,0.001831,0.009155,0

0.025146,0.006348,1.002930,-0.040894,0.123901,-0.112915,0

0.027832,0.006592,1.002808,0.081177,0.001831,0.009155,0

0.028442,0.006714,1.004272,0.203247,-0.242310,0.070190,0

0.028320,0.005615,1.001221,0.020142,0.001831,0.131226,0

0.027832,0.005249,1.004028,0.081177,0.001831,-0.051880,0

0.026001,0.005859,0.999023,-0.040894,0.001831,0.009155,0

0.028076,0.003540,1.002319,-0.101929,-0.059204,-0.051880,0

0.028198,0.005493,1.002319,0.020142,0.062866,-0.051880,0

0.027466,0.006958,1.001953,0.020142,0.062866,0.009155,0

0.031006,0.006836,1.002197,-0.040894,0.123901,-0.051880,0

0.031128,0.005615,1.002197,0.081177,0.001831,0.009155,0

0.027222,0.005493,1.002686,-0.040894,0.123901,0.131226,0

0.028076,0.005737,1.004639,0.020142,0.062866,0.070190,0

0.025146,0.007324,1.002563,0.020142,0.001831,0.070190,0

0.028687,0.005249,1.003418,-0.040894,-0.120239,0.009155,0

0.027832,0.004150,1.002563,0.020142,-0.059204,0.070190,0

0.027588,0.006226,1.002808,-0.101929,0.062866,0.070190,0

0.029785,0.006836,1.005371,0.020142,-0.059204,-0.051880,0

0.024536,0.006470,1.003296,0.020142,0.123901,0.009155,0

0.025391,0.006714,1.001587,0.020142,0.123901,0.131226,0

0.024414,0.004883,1.004150,0.020142,0.062866,0.070190,0

0.030029,0.005859,1.003418,0.020142,0.123901,0.009155,0

0.025024,0.005981,1.003540,0.020142,0.062866,0.009155,0

0.027466,0.005981,1.003174,-0.040894,-0.059204,0.009155,0

0.026001,0.005859,1.003296,0.020142,-0.059204,0.009155,0

0.028320,0.005737,1.003296,-0.162964,0.062866,-0.051880,0

0.026367,0.005615,0.998901,0.081177,0.001831,0.070190,0

0.029175,0.003906,1.003418,0.142212,0.001831,0.009155,0

0.029053,0.005005,1.001465,-0.040894,-0.059204,-0.051880,0

0.025879,0.004272,1.003174,0.020142,0.062866,0.009155,0

0.025635,0.005981,1.001099,0.020142,-0.120239,0.070190,0

0.025635,0.004639,0.999268,0.081177,-0.059204,0.009155,0

0.026489,0.006836,1.003296,-0.040894,-0.120239,0.009155,0

0.027954,0.005371,1.002686,0.142212,0.001831,0.009155,0

0.027344,0.005005,1.003296,0.264282,0.062866,0.131226,0

0.024658,0.007324,1.003662,-0.101929,0.184937,0.070190,0

0.029663,0.007324,1.003174,-0.040894,0.001831,-0.051880,0

0.028809,0.007080,1.002930,0.081177,0.062866,-0.051880,0

0.027710,0.004150,1.004761,0.020142,0.062866,0.070190,0

0.023682,0.003906,1.000244,-0.162964,0.062866,-0.051880,0

0.028076,0.004272,1.002563,-0.407104,0.001831,-0.051880,0

0.023438,0.009033,1.001465,-0.468140,-0.730591,-3.042603,0

0.032593,0.058594,1.023682,-8.524780,-3.721313,-7.925415,0

0.009033,0.077393,0.986816,-4.862671,-8.176880,-22.329712,0

0.091797,-0.044678,1.011108,-6.266479,4.152222,-25.747681,0

0.060669,-0.206299,1.256836,-56.071167,-35.459595,-29.470825,0

0.113037,0.010986,1.314087,-24.821167,15.565796,-0.418091,0

0.152588,-0.255005,1.485229,0.935669,-20.933228,-23.794556,0

0.093994,-0.445923,1.130737,-22.929077,78.676147,16.122437,0

-0.045288,-0.554565,0.939331,33.467407,60.182495,47.616577,0

-0.059570,-0.475464,0.600464,11.006470,79.347534,77.767944,0

-0.096680,-0.317139,0.602417,12.776489,44.862671,97.238159,0

-0.111206,-0.098267,0.468994,0.935669,10.621948,82.345581,0

-0.069214,-0.034302,0.673828,13.447876,-30.820923,87.777710,0

0.118896,0.182007,0.480713,9.114380,-16.111450,99.252319,0

0.142212,0.159546,0.892334,52.449341,-70.127563,87.594604,0

0.240112,0.351929,0.680298,9.053345,-31.065063,88.388062,0

0.284668,0.372681,1.234375,66.182251,-63.657837,79.415894,0

0.244141,0.728882,1.356201,-3.947144,-15.989380,57.382202,0

0.260132,0.968384,1.721558,0.508423,-8.787231,33.395386,0

0.392456,0.860107,1.463989,-37.882690,38.637085,-22.634888,0

0.383301,0.714722,1.299683,-9.318237,64.149780,-54.434204,0

0.335083,0.591675,1.100952,-0.040894,78.798218,-84.524536,0

0.275513,0.470703,0.980713,-0.712280,92.470093,-119.924927,0

0.228149,0.310669,0.729614,24.983521,97.047729,-149.771118,0

0.085327,0.158691,0.653442,28.340454,79.652710,-170.950317,0

0.036255,0.171143,0.531128,39.448853,61.952515,-176.199341,0

0.131836,-0.002197,0.496338,39.509888,37.172241,-191.946411,0

0.082642,-0.003296,0.662598,48.787231,21.364136,-202.078247,0

0.360352,-0.148560,0.605347,33.772583,14.467163,-219.229126,0

0.221191,-0.275879,0.651611,8.198853,11.232300,-227.590942,0

0.400757,-1.044312,0.497070,-36.600952,-15.012817,-223.745728,0

0.331787,-1.319458,0.387085,-73.588257,5.678101,-201.589966,0

0.197144,-1.497803,0.637573,-109.965210,-59.385376,-150.015259,0

0.190796,-1.627441,0.905273,13.447876,25.087280,-94.900513,0

0.202637,-1.442993,0.796509,17.476196,10.438843,-38.931274,0

0.063965,-1.288696,1.056030,18.513794,-12.510376,39.010620,0

-0.036743,-1.436768,0.907227,1.973267,1.771851,57.687378,0

-0.076782,-1.514404,0.974976,13.264771,5.006714,114.450073,0

-0.122681,-1.264038,1.048828,2.461548,17.640991,149.911499,0

-0.079956,-1.210449,0.862305,-89.213257,17.457886,169.747925,0

0.130737,-0.686523,0.576294,36.275024,1.771851,239.144897,0

0.068726,-0.131470,0.184937,16.072388,23.622437,184.884644,0

0.043701,-0.030884,0.053955,4.719849,-39.487915,175.973511,0

0.149536,0.230957,0.242065,10.823364,-49.680786,134.774780,0

-0.106445,0.400146,0.004517,25.715942,-63.291626,124.093628,0

0.093262,0.043091,0.221069,-20.060425,-136.655884,61.349487,0

0.087646,0.555176,0.923096,24.556274,-204.465942,83.810425,0

0.059204,0.112183,1.352783,-54.057007,-115.476685,27.963257,0

-0.033203,0.186157,1.656616,28.889771,-83.433228,23.019409,0

-0.042358,0.282593,1.773315,-42.521362,-63.230591,40.963745,0

0.075562,-0.331787,1.135254,-61.747437,-42.112427,15.206909,0

-0.002075,-0.001831,1.067261,16.499634,-78.001099,60.800171,0

0.009399,0.081177,1.004517,109.151001,-19.590454,85.397339,0

0.286987,0.203979,1.183228,21.321411,-50.901489,86.434937,0

0.353638,-0.057251,1.031372,28.645630,-44.797974,74.472046,0

0.307617,0.066772,1.110596,-19.511108,-54.868774,52.377319,0

0.439575,-0.068970,0.877319,2.888794,-52.671509,36.325073,0

0.535645,-0.077148,1.049927,0.020142,-90.513306,41.268921,0

0.836060,-0.148926,0.938232,8.504028,-118.406372,22.592163,0

1.082764,-0.032349,1.689941,44.331665,-137.022095,32.601929,0

1.159180,0.036621,1.751587,64.656372,-68.540649,-19.155884,0

1.249390,0.169678,1.494019,36.336060,23.805542,-53.213501,0

1.348511,0.336060,1.837524,68.745728,153.688354,-125.906372,0

1.405518,0.161255,1.109619,58.674927,289.857788,-168.508911,0

1.211914,0.237305,1.335327,144.185181,420.106812,-250.479126,0

2.446777,-0.139404,0.816406,198.506470,607.728882,-399.404907,0

1.232178,-0.997803,-0.608276,187.031860,415.712280,-291.372681,0

0.102051,-0.794678,-0.770630,-30.741577,205.812378,-151.846313,0

-0.250244,-0.629150,-0.935669,6.489868,22.767944,-4.751587,0

-0.572754,-0.076660,-0.532959,3.926392,15.504761,39.071655,0

-0.647095,0.033569,-0.703125,8.320923,-3.355103,29.183960,0

-0.642578,0.056519,-0.678711,-13.346558,-11.655884,3.305054,0

-0.603271,0.006348,-0.760132,15.828247,-40.830688,10.507202,0

-0.627075,0.269409,-0.483032,26.448364,-56.943970,8.187866,0

-0.560791,0.053589,-0.679565,25.654907,-89.536743,-23.550415,0

-0.582886,0.057617,-0.471313,-2.177124,-128.110962,-55.960083,0

-0.547363,-0.065674,-0.323364,69.661255,-177.671509,-57.119751,0

-0.432495,-0.267700,0.357910,-4.252319,-189.939575,-138.662720,0

-0.400024,-0.957275,1.003418,3.438110,-139.951782,-137.136841,0

-0.242554,-1.838623,0.810547,-91.898804,-80.198364,-147.940063,0

-0.113892,-2.562622,0.911987,-125.956421,-85.813599,-28.189087,0

0.058960,-2.112549,0.755859,-105.082397,-52.793579,77.767944,0

0.709106,-2.044556,0.634399,-97.514038,-69.761353,170.785522,0

1.769287,-1.601562,1.006836,56.172485,-91.428833,462.533569,0

2.218750,0.294067,1.449707,97.615356,14.467163,563.729858,0

2.061646,0.708008,0.396729,59.956665,99.306030,517.282104,0

1.964478,1.988037,0.671753,-42.338257,57.802124,420.358276,0

1.812866,1.948975,1.112671,-69.071655,82.887573,314.462280,0

1.370972,1.472656,0.401611,-53.873901,107.667847,180.795288,0

0.940308,0.972412,0.153076,-55.155640,69.520874,105.172729,0

0.906128,1.091553,0.208618,-59.916382,39.796753,112.130737,0

0.835571,1.383423,0.538696,-62.235718,1.100464,81.613159,0

0.895752,1.182983,0.807861,5.391235,-28.989868,14.657593,0

0.855835,1.152222,0.897949,27.180786,-13.181763,-29.959106,0

0.910645,0.987915,0.790894,19.185181,-9.519653,-60.964966,0

0.992188,1.100830,0.837402,28.889771,-15.928345,-106.436157,0

1.043335,1.128296,0.783936,52.632446,-33.384399,-124.014282,0

1.092163,1.204102,0.806030,67.463989,-34.238892,-183.401489,0

1.175293,1.555542,1.312988,161.336060,-66.526489,-200.308228,0

1.237427,1.441895,1.371460,140.706177,-67.503052,-310.232544,0

1.334717,0.949707,1.464233,227.803345,-65.244751,-351.797485,0

1.763916,0.250000,1.202148,168.171997,-67.014771,-421.255493,0

1.693604,-0.332153,0.863892,121.235962,-34.360962,-425.955200,0

2.054199,-0.553467,1.703613,155.415649,-84.837036,-414.114380,0

1.720581,-0.952148,1.012695,44.697876,18.190308,-377.310181,0

2.032593,-0.867188,0.438232,137.105103,65.431519,-362.539673,0

2.030640,-2.579712,0.751343,75.642700,14.406128,-345.632935,0

1.174927,-2.203857,0.332397,163.655396,62.379761,-110.159302,0

0.801514,-2.025513,0.599976,53.303833,-41.441040,-80.618286,0

0.632324,-1.721802,0.642700,20.283813,7.875366,-49.856567,0

0.572876,-1.671509,0.488159,5.086060,-14.341431,-2.249146,0

0.433716,-1.177124,0.644409,-9.013062,-13.486938,33.273315,0

0.451416,-1.391846,0.588989,-23.356323,0.123901,23.507690,0

0.477661,-1.583130,0.687012,-46.244507,9.767456,52.682495,0

0.504883,-1.464355,0.551514,-82.072144,-8.054810,92.904663,0

0.495239,-1.215820,0.424683,-44.596558,-2.378540,144.418335,0

0.547607,-0.912720,0.149902,-20.487671,-3.171997,165.780640,0

0.796875,-0.882446,0.002930,35.969849,-21.421509,201.303101,0

0.835327,-1.438232,0.141602,-19.999390,-98.753052,239.999390,0

0.846558,-1.006592,0.741577,0.447388,-109.312134,342.111206,0

0.749023,-1.134277,0.197510,-100.993042,-94.053345,381.234741,0

0.925781,0.266846,0.974609,-19.144897,-172.544556,446.786499,0

0.596313,0.291504,0.604858,-144.144897,-111.692505,322.030640,0

0.445190,0.051025,0.973877,-122.721558,-114.317017,290.170288,0

0.307007,0.133057,0.655029,-137.797241,-59.629517,201.730347,0

0.542114,0.203125,0.778198,-107.157593,-54.197388,173.959351,0

0.948853,0.746582,1.471924,11.067505,-105.222778,126.901245,0

0.741821,1.299194,2.901123,6.856079,-24.900513,120.309448,0

0.601318,0.338501,1.392578,9.663696,-5.186157,-13.296509,0

0.387573,0.512695,1.536255,37.556763,3.297729,29.733276,0

0.289185,0.250854,0.912720,-25.431519,16.237183,-14.212036,0

0.115479,0.404419,1.019043,25.288696,9.096069,-1.760864,0

0.205933,0.320190,1.209961,-7.243042,7.448120,-32.705688,0

0.299072,0.328857,1.073364,-25.309448,35.585327,-49.612427,0

0.252686,0.377075,1.132080,-43.864136,48.952026,-80.679321,0

0.020996,0.466309,0.897583,5.696411,81.788940,-123.037720,0

0.003906,0.383545,0.871826,18.391724,63.905640,-159.963989,0

-0.005859,0.291504,0.728027,19.551392,68.483276,-198.782349,0

-0.137573,0.013672,0.630493,30.110474,64.027710,-212.881470,0

-0.111816,-0.034180,0.526123,44.148560,66.224976,-212.210083,0

-0.091309,-0.388550,0.446899,40.059204,73.427124,-234.243774,0

-0.004517,-0.196045,0.171143,39.448853,73.488159,-236.441040,0

0.284790,-0.952026,0.303467,43.660278,4.091187,-259.817505,0

0.191650,-0.765991,0.301392,65.755005,21.425171,-207.571411,0

0.088013,-1.663452,1.098145,-11.698608,-117.551880,-219.168091,0

0.070312,-1.086548,0.728394,137.471313,-55.540161,-58.279419,0

-0.286377,-0.156494,1.203613,76.802368,-201.292114,-115.835571,0

0.344116,-0.817627,1.232178,3.071899,0.978394,-31.912231,0

0.260376,-0.647827,0.846313,-35.807495,-49.680786,19.967651,0

0.334839,-0.484131,1.033691,76.253052,-39.243774,38.705444,0

0.460693,-0.188110,1.337158,47.749634,-11.716919,5.685425,0

0.729370,-0.244995,1.269043,104.695435,-7.322388,49.447632,0

0.578857,-0.088135,1.416626,29.500122,1.466675,59.030151,0

0.350464,-0.039795,1.294800,29.133911,30.397339,32.601929,0

0.393188,0.060059,1.229492,95.906372,36.989136,33.639526,0

0.173828,0.188965,1.000854,63.557739,37.233276,18.380737,0

0.369019,-0.047119,1.312622,38.350220,-1.340942,33.761597,0

0.203979,0.363525,0.995728,59.163208,39.857788,17.282104,0

0.184204,0.272461,1.061768,67.769165,39.796753,-11.831665,0

-0.099854,0.028931,0.183716,61.787720,43.153687,-65.054321,0

-0.006226,0.307495,0.880005,-68.095093,-56.028442,43.527222,0

0.087280,0.216797,0.843140,-9.867554,-11.900024,39.498901,0

-0.020996,0.449463,0.808838,78.816528,7.631226,27.597046,0

-0.071045,0.332764,0.686401,40.364380,21.852417,29.244995,0

-0.013184,0.492432,0.968140,23.274536,-5.003052,35.287476,0

-0.276978,0.502075,0.667603,13.630981,12.208862,31.625366,0

-0.164917,0.419800,0.779907,37.984009,53.773804,8.187866,0

-0.188232,0.584473,0.584229,28.584595,30.641479,-31.546021,0

-0.060547,0.424194,0.803101,54.951782,42.482300,-2.066040,0

-0.038940,0.605225,0.742676,113.850708,46.510620,-11.404419,0

-0.100830,0.467896,0.818115,-79.264526,-13.425903,28.146362,0

-0.368042,0.575562,0.961304,-67.850952,-13.181763,-14.761353,0

-0.091553,0.435425,0.897339,-5.167847,21.119995,23.080444,0

-0.132202,0.535278,0.806885,-25.736694,26.185913,-5.911255,0

-0.171387,0.292480,0.817139,11.616821,-8.604126,-15.737915,0

-0.196167,0.291626,0.844360,-37.882690,3.602905,-3.958130,0

-0.024170,0.577759,0.916504,8.748169,-17.576294,-8.230591,0

0.000122,0.265625,0.775391,-22.318726,8.180542,2.450562,0

0.120239,0.457886,0.782471,25.776978,-7.200317,2.450562,0

0.153076,0.372925,0.815186,31.941528,-36.802368,10.324097,0

0.221558,0.367432,0.900879,16.255493,-44.187622,23.568726,0

0.294556,0.391357,0.886963,15.584106,-51.817017,19.479370,0

0.220703,0.401733,0.887451,3.743286,-47.422485,34.371948,0

0.284668,0.329834,0.903198,-5.839233,-58.347778,3.549194,0

0.391724,0.351318,0.757324,-39.225464,-50.474243,32.662964,0

0.354736,0.464111,0.758667,-4.679565,-72.019653,23.690796,0

0.483521,0.425293,0.861572,34.505005,-37.229614,-16.897583,0

0.498535,0.562378,0.983154,10.151978,-56.211548,-1.028442,0

0.499390,0.475342,0.987183,31.697388,-13.731079,-0.723267,0

0.382202,0.634399,0.865479,-16.215210,-14.524536,11.605835,0

0.493530,0.427979,0.944092,-2.543335,0.490112,6.051636,0

0.389404,0.500000,0.731323,-50.333862,30.092163,6.173706,0

0.563110,0.451904,0.869141,-27.750854,18.678589,5.990601,0

0.377808,0.412231,0.575439,-4.069214,25.331421,10.446167,0

0.394775,0.372314,0.942871,38.228149,23.622437,-3.591919,0

0.258057,0.416504,0.859619,-10.233765,22.035522,-2.188110,0

0.333984,0.381348,0.842163,0.630493,6.654663,-15.798950,0

0.452759,0.339844,0.885742,-11.698608,18.983765,-4.568481,0

0.333862,0.440674,0.779053,-13.163452,35.341187,-37.954712,0

0.187744,0.521851,0.978516,-6.754761,6.227417,-11.099243,0

0.281006,0.392944,0.804932,-13.041382,0.001831,14.657593,0

0.292725,0.445557,0.845947,6.672974,-22.825317,-11.099243,0

0.334473,0.458374,0.843506,-19.633179,-45.225220,-22.940063,0

0.361450,0.328125,0.817017,-29.581909,-21.238403,-16.043091,0

0.331543,0.442017,0.933350,31.697388,-33.994751,-29.959106,0

0.449463,0.176392,1.024780,20.405884,-30.454712,-13.479614,0

0.490967,0.140503,1.100220,37.861938,18.556519,32.479858,0

0.580933,0.100952,1.067505,95.479126,115.358276,142.587280,0

0.378052,0.285522,1.144165,86.567993,140.443726,157.907104,0

0.443726,0.337524,0.896484,105.671997,209.840698,185.617065,0

0.330811,0.544067,0.854248,140.950317,261.781616,189.950562,0

0.343750,0.583862,0.724243,120.259399,249.086304,150.888062,0

0.230591,0.643677,0.565430,118.062134,246.583862,136.727905,0

0.217041,0.652344,0.468506,80.769653,176.515503,94.735718,0

0.224365,0.652222,0.413696,87.788696,153.688354,102.609253,0

0.326660,0.723877,0.359009,55.562134,124.757690,100.900269,0

0.260864,0.883301,0.267578,44.209595,100.831909,90.585327,0

0.398315,0.896606,0.255493,53.670044,81.117554,94.918823,0

0.372925,1.025269,0.103271,55.317993,71.168823,116.952515,0

0.606201,1.057495,0.200684,84.065552,70.375366,136.483765,0

0.550293,1.099121,-0.198486,15.828247,33.815308,96.871948,0

0.858154,0.954468,0.068604,4.963989,-45.286255,47.677612,0

0.761597,0.942871,0.073853,-61.930542,-103.513794,-22.634888,0

0.800659,0.728394,0.161499,-69.498901,-143.247681,-46.377563,0

0.724731,0.682251,0.064209,-110.575562,-212.339478,-108.389282,0

0.758301,0.627075,0.003418,-34.281616,-199.216919,-85.317993,0

0.627686,0.737061,0.171387,-78.776245,-254.453735,-92.276001,0

0.467896,0.745605,0.217773,-122.416382,-251.035767,-73.904419,0

0.368042,0.900024,0.404419,-44.108276,-176.633911,-38.565063,0

0.219482,0.904907,0.426147,-63.700562,-176.817017,-51.138306,0

0.319824,0.717651,0.537109,-140.971069,-192.808228,-122.122192,0

0.108643,0.768921,0.732544,-181.681519,-174.070435,-98.684692,0

0.149048,0.449829,0.802979,-179.911499,-138.120728,-95.693970,0

0.173096,0.354248,0.803711,-148.234253,-84.287720,-59.194946,0

0.151489,0.279541,0.754761,-87.870483,-40.891724,-14.883423,0

0.089233,0.546021,0.816650,-48.136597,-40.220337,10.324097,0

0.241577,0.365845,0.788818,-43.986206,-25.510864,-3.225708,0

0.237549,0.543213,0.769653,-24.638062,-28.013306,27.108765,0

0.240845,0.681274,0.854370,-5.839233,-30.454712,27.597046,0

0.241333,0.690308,0.863281,-27.628784,-33.872681,2.145386,0

0.338989,0.567993,0.866821,-15.116577,-41.196899,12.704468,0

0.380127,0.372803,0.764893,-30.375366,-45.591431,8.309937,0

0.587646,0.202393,0.957642,38.899536,-23.496704,32.296753,0

0.438965,0.269531,1.048218,3.255005,-6.223755,56.100464,0

0.511597,0.278809,0.852173,-27.994995,-13.303833,23.507690,0

0.393066,0.393311,0.785767,-14.262085,-2.134399,29.916382,0

0.195679,0.570435,0.586060,-46.549683,-19.956665,-46.804810,0

-0.158569,0.764526,0.680298,-66.752319,-41.868286,-88.125610,1

-0.306641,0.973389,0.848999,-94.950562,-50.962524,-203.970337,1

